timestamp_us,ecg,leads,ir,red,accX,accY,accZ,gyroX,gyroY,gyroZ,temp,time_sec,ecg_filtered,ppg_filtered,accel_magnitude,gyro_magnitude,ecg_norm,ppg_norm
1949964,1920.0,1,205049.0,244083,0.54,-0.82,9.919999999999998,-0.03,-0.01,-0.0,32.81,0.030474,-8.25798055672618,-27.190946058166386,9.968470293881602,0.03162277660168379,-0.10776467760396254,-0.06663998238822993
1990203,1790.5,1,206962.0,246520,0.55,-0.82,9.97,-0.03,-0.01,0.0,32.81,0.070713,-140.49642642556898,1138.922977202671,10.018772379887668,0.03162277660168379,-2.0614805832600633,2.3115834970673284
2030174,1790.5,1,207205.25,249263,0.54,-0.83,9.95,-0.03,-0.01,0.0,32.81,0.110684,-150.06866937529244,1805.0539337539335,9.999149963871929,0.03162277660168379,-2.20290271795626,3.670119957066396
2070176,1790.5,1,207205.25,249525,0.54,-0.85,9.95,-0.03,-0.01,0.0,32.81,0.150686,-148.87011627842173,1856.699316735088,10.000829965557857,0.03162277660168379,-2.1851950669494404,3.7754477985073067
2110193,1790.5,1,207205.25,248129,0.5249999999999999,-0.83,9.98,-0.03,-0.01,0.0,32.81,0.190703,-159.41904023592687,1621.5616966652335,10.028206469753203,0.03162277660168379,-2.3410468722842945,3.2958979039398066
2150197,1790.5,1,207205.25,247957,0.5249999999999999,-0.79,9.97,-0.03,-0.01,0.0,32.81,0.230707,-161.54500468750842,1544.9059844544465,10.015019970025023,0.03162277660168379,-2.3724562747211158,3.1395629087239887
2190194,1790.5,1,207205.25,247488,0.55,-0.83,9.97,-0.03,-0.01,0.0,32.81,0.270704,-168.58658315129716,1750.1040020447228,10.019595800230666,0.03162277660168379,-2.4764898918378377,3.5580526751494705
2230197,1790.5,1,207205.25,247243,0.57,-0.86,9.93,-0.03,-0.01,0.0,32.81,0.310707,-174.61091352601844,1864.6095471728238,9.983456315324869,0.03162277660168379,-2.565494492555043,3.791580266681876
2270194,1790.5,1,207205.25,247126,0.6,-0.83,9.95,-0.03,-0.01,-0.0,32.81,0.350704,-182.00892578868647,1310.0103819866088,10.002569669839845,0.03162277660168379,-2.674794130287846,2.6605065953856264
2310197,1790.5,1,207205.25,247278,0.57,-0.84,9.94,-0.03,-0.01,-0.0,32.81,0.390707,-186.12270785623687,-124.31542122581409,9.991701556792016,0.03162277660168379,-2.7355719275840085,-0.26471986349246357
2350193,1790.5,1,207205.25,246877,0.58,-0.83,9.95,-0.03,-0.01,-0.0,32.81,0.430703,-198.53556953609507,-1918.3144799525887,10.001389903408425,0.03162277660168379,-2.9189619027104627,-3.923479611128925
2390196,1790.5,1,198101.25,245970,0.58,-0.85,9.96,-0.03,-0.01,0.0,32.81,0.470706,-200.4632750853592,-3084.1251865064796,10.013016528499291,0.03162277660168379,-2.9474421904836134,-6.301084697237624
2430193,1790.5,1,203211.0,246429,0.6,-0.85,9.93,-0.03,-0.01,-0.0,32.81,0.510703,-211.49686024585836,-2922.112797560121,9.984357766025814,0.03162277660168379,-3.1104544724478056,-5.9706695811248816
2470196,1790.5,1,207205.25,246359,0.58,-0.84,9.94,-0.03,-0.01,-0.0,32.81,0.550706,-223.38576751182416,-1597.4996504894912,9.99227701777728,0.03162277660168379,-3.2861034455870195,-3.269195887414216
2510193,1790.5,1,207205.25,246368,0.58,-0.83,9.96,-0.03,-0.01,-0.0,32.81,0.590703,-217.51906427354382,14.584230384935141,10.011338571839433,0.03162277660168379,-3.199427658110202,0.018558130329235593
2550196,1790.5,1,207205.25,246331,0.57,-0.84,9.96,-0.03,-0.01,-0.0,32.81,0.630706,-251.93765193985965,1040.7278153448578,10.01159827400201,0.03162277660168379,-3.7079344069009013,2.1113200109354042
2590193,1882.0,1,207205.25,246161,0.57,-0.85,9.98,-0.03,-0.01,-0.0,32.81,0.670703,-132.55669196892123,1193.4283470647254,10.032337713613911,0.03162277660168379,-1.944177438983673,2.422744120207707
2630196,2194.0,1,207205.25,246000,0.58,-0.82,9.96,-0.03,-0.01,-0.0,32.81,0.710706,129.80333999229921,781.8539071324686,10.01051447229362,0.03162277660168379,1.9319794840904632,1.5833612974269162
2670193,2218.5,1,207205.25,245329,0.58,-0.82,9.96,-0.03,-0.01,-0.0,32.81,0.750703,186.58929915276633,300.87926400015016,10.01051447229362,0.03162277660168379,2.7709460259369916,0.6024406802359176
2710196,2218.5,1,207205.25,243026,0.55,-0.85,9.95,-0.03,-0.01,-0.0,32.81,0.790706,146.20245573882625,43.786773032639644,10.001374905481745,0.03162277660168379,2.174263133615977,0.07811506657639714
2750193,2218.5,1,206978.0,242081,0.57,-0.84,9.98,-0.03,-0.01,-0.0,32.81,0.830703,160.8724505049304,11.706014561450033,10.031495401982697,0.03162277660168379,2.3910004214910634,0.012688171731012344
2790196,2218.5,1,206959.0,241922,0.57,-0.83,9.96,-0.03,-0.01,0.0,32.81,0.870706,144.24397021269587,65.32098604426302,10.010764206592823,0.03162277660168379,2.145328096620811,0.12203287767038637
2830193,2218.5,1,206864.0,241818,0.55,-0.83,9.95,-0.03,-0.01,-0.0,32.81,0.910703,139.27937133816224,102.95962559413405,9.999694995348607,0.03162277660168379,2.0719801702847827,0.19879475704316654
2870196,2218.5,1,206887.0,241777,0.58,-0.83,9.95,-0.03,-0.01,-0.0,32.81,0.950706,138.8850128694759,117.5526389918047,10.001389903408425,0.03162277660168379,2.0661538433967093,0.22855638359274247
2910193,2218.5,1,207118.0,242076,0.57,-0.83,9.99,-0.03,-0.01,-0.0,32.81,0.990703,128.51345602660132,142.2151354905883,10.04061253111582,0.03162277660168379,1.9129224934877893,0.2788541521601435
2950196,2218.5,1,207194.0,242177,0.57,-0.83,9.96,-0.03,-0.01,-0.0,32.81,1.030706,130.31588873712187,182.58979079290313,10.010764206592823,0.03162277660168379,1.9395519765574214,0.36119598111831824
2990880,2218.5,1,207205.25,242131,0.57,-0.85,9.97,-0.03,-0.01,0.0,32.77,1.07139,125.50398190122347,207.38712728200292,10.022389934541561,0.03162277660168379,1.8684599513898368,0.4117687482296375
3029197,2218.5,1,207102.0,242016,0.58,-0.82,9.98,-0.03,-0.01,0.0,32.77,1.109707,124.7054295752889,189.63428072919447,10.03041375018997,0.03162277660168379,1.8566619877157597,0.37556282044086786
3069193,2218.5,1,207011.0,242151,0.59,-0.84,9.96,-0.03,-0.01,-0.0,32.77,1.149703,125.42055394293307,144.41478385098097,10.012756863122165,0.03162277660168379,1.8672273708946756,0.2833402107457433
3109196,2218.5,1,207054.0,242390,0.58,-0.84,9.93,-0.03,-0.01,-0.0,32.77,1.189706,125.55615950024183,123.34604179528999,9.982329387472646,0.03162277660168379,1.8692308331440146,0.24037170137461453
3149193,2218.5,1,207047.0,242561,0.56,-0.82,9.97,-0.03,-0.01,-0.0,32.77,1.229703,127.89602069093996,170.74524779043884,10.01932632465876,0.03162277660168379,1.9038003866143303,0.3370397046945603
3189227,2218.5,1,207107.0,242790,0.57,-0.82,9.95,-0.03,-0.01,-0.0,32.77,1.269737,131.01780447566486,278.2358085040219,9.999989999994998,0.03162277660168379,1.9499222129422467,0.5562606317494767
3229193,2218.5,1,207145.0,242986,0.57,-0.83,9.96,-0.03,-0.01,-0.0,32.77,1.309703,136.18005296287217,375.18889509440453,10.010764206592823,0.03162277660168379,2.026190252181071,0.7539909755311283
3269196,2206.0,1,207182.0,243137,0.56,-0.82,9.96,-0.03,-0.01,-0.0,32.77,1.349706,124.74475508873616,367.49389982603884,10.009375604901637,0.03162277660168379,1.857242990317652,0.738297467327099
3309193,2143.0,1,207137.0,242357,0.58,-0.84,9.96,-0.03,-0.01,-0.0,32.77,1.389703,76.9960468831664,202.00522673646012,10.01217259140093,0.03162277660168379,1.1517945098638036,0.40079266605945524
3349196,2106.0,1,206558.0,240784,0.58,-0.83,9.96,-0.03,-0.01,-0.0,32.77,1.429706,30.69484958566554,-89.53921555524227,10.011338571839433,0.03162277660168379,0.46773183038579125,-0.19379575633417023
3389202,2062.0,1,206158.0,240223,0.56,-0.84,9.96,-0.03,-0.01,-0.0,32.77,1.469712,17.604686503430138,-402.8698338031533,10.011033912638595,0.03162277660168379,0.27433527575022826,-0.8328158540153363
3429196,2046.0,1,206046.0,240055,0.58,-0.83,9.94,-0.03,-0.01,0.0,32.77,1.509706,-19.55066689406992,-622.4605928531731,9.99144133746478,0.03162277660168379,-0.274604969547019,-1.2806588036851956
3469193,1988.0,1,205966.0,240049,0.57,-0.84,9.95,-0.03,-0.01,-0.0,32.77,1.549703,-36.79912742725308,-685.637156819401,10.001649863897455,0.03162277660168379,-0.5294370002046125,-1.4095038374154045
3509196,2021.0,1,205977.0,240218,0.57,-0.82,9.98,-0.03,-0.01,0.0,32.77,1.589706,-25.549590618138733,-606.0094269021987,10.029840477295739,0.03162277660168379,-0.3632342075838554,-1.2471075799594535
3549193,1921.0,1,206032.0,240715,0.58,-0.83,9.96,-0.03,-0.01,-0.0,32.77,1.629703,-90.78684136445078,-449.7331766831365,10.011338571839433,0.03162277660168379,-1.3270617358562167,-0.9283909947797117
3589197,1898.0,1,206232.0,240948,0.56,-0.81,9.96,-0.03,-0.01,0.0,32.77,1.669707,-122.29155630503743,-290.5628905441527,10.008561335177,0.03162277660168379,-1.7925183757779648,-0.6037721868086502
3629193,1914.0,1,206229.0,241003,0.56,-0.85,9.95,-0.03,-0.01,-0.0,32.77,1.709703,-86.19217449355716,-173.9957463532871,10.001929813790936,0.03162277660168379,-1.2591792551761332,-0.3660400804355505
3669197,1907.0,1,206261.0,241085,0.58,-0.83,9.93,-0.03,-0.01,-0.0,32.77,1.749707,-90.40851561770646,-104.99490673071071,9.981492874314943,0.03162277660168379,-1.3214722794460385,-0.2253167654838837
3709194,1899.0,1,206288.0,241373,0.56,-0.82,9.97,-0.03,-0.01,-0.0,32.77,1.789704,-81.97164004721793,-56.571996206895165,10.01932632465876,0.03162277660168379,-1.196824277968062,-0.1265609746008736
3749196,1907.0,1,206408.0,241656,0.55,-0.82,9.99,-0.03,-0.01,-0.0,32.77,1.829706,-78.96548510154716,10.608334893158064,10.038675211401154,0.03162277660168379,-1.1524107740612717,0.010449516049110309
3789193,1823.0,1,206420.0,241827,0.57,-0.84,9.93,-0.03,-0.01,-0.0,32.77,1.869703,-129.86164824783052,124.60133173207329,9.981753352993652,0.03162277660168379,-1.904360351375461,0.24293179429661163
3829197,1856.0,1,206501.0,242098,0.59,-0.83,9.96,-0.03,-0.01,0.0,32.77,1.909707,-127.61683539680652,278.9340342281259,10.011922892232041,0.03162277660168379,-1.8711950601210807,0.5576846236750517
3869193,1865.0,1,206523.0,242344,0.58,-0.82,9.95,-0.03,-0.01,-0.0,32.77,1.949703,-59.14823933811619,420.33935608461576,10.00056498403965,0.03162277660168379,-0.859627022710233,0.8460727904321104
3909196,1915.0,1,206627.0,242560,0.57,-0.82,9.95,-0.03,-0.01,0.0,32.77,1.989706,-65.86311119197218,464.6383461971193,9.999989999994998,0.03162277660168379,-0.9588338143442832,0.9364180785726758
3949194,1790.5,1,206643.0,242419,0.59,-0.82,9.98,-0.03,-0.01,0.0,32.77,2.029704,-115.71356299538189,345.62765038341456,10.03099695942532,0.03162277660168379,-1.695333853743277,0.693702486686902
3989196,1872.0,1,206283.0,240745,0.55,-0.84,9.95,-0.03,-0.01,-0.0,32.77,2.069706,-96.9911193794249,70.17939079319933,10.000529985955744,0.03162277660168379,-1.4187249171748304,0.13194131973264123
4029880,1846.0,1,205672.0,239875,0.57,-0.82,9.96,-0.03,-0.01,-0.0,32.75,2.11039,-58.77904180169833,-266.40927431016405,10.009940059760599,0.03162277660168379,-0.8541724282124722,-0.5545122507975939
4070196,1918.0,1,205481.0,239818,0.57,-0.83,9.95,-0.03,-0.01,0.0,32.75,2.150706,-30.394949089848097,-526.6570590787661,10.000814966791456,0.03162277660168379,-0.43482045356993704,-1.0852729079401326
4110193,1878.0,1,205503.0,239928,0.55,-0.82,9.96,-0.03,-0.01,-0.0,32.75,2.190703,-36.10094328618486,-608.9780099883487,10.008821109401447,0.03162277660168379,-0.5191218951493495,-1.2531618374855575
4150196,1863.0,1,205558.0,240179,0.57,-0.84,9.94,-0.03,-0.01,-0.0,32.75,2.230706,-66.37863431222642,-500.9115893715423,9.991701556792016,0.03162277660168379,-0.9664502507985737,-1.0327664766850142
4190193,1875.0,1,205715.0,240792,0.56,-0.84,9.96,-0.03,-0.01,0.0,32.75,2.270703,-47.25778802586464,-274.4838566253876,10.011033912638595,0.03162277660168379,-0.6839552375380453,-0.5709799053430117
4228196,1917.0,1,205986.0,241316,0.58,-0.84,9.99,-0.03,-0.01,-0.0,32.75,2.308706,-5.060098592100267,-36.22033346011073,10.042016729721176,0.03162277660168379,-0.06051856231841921,-0.08505490797659455
4268193,1938.0,1,206071.0,241462,0.57,-0.84,9.96,-0.03,-0.01,-0.0,32.75,2.348703,15.10900185216737,130.57183926339738,10.01159827400201,0.03162277660168379,0.23746355688936185,0.25510830716728855
4308196,1949.0,1,206114.0,241499,0.58,-0.83,9.96,-0.03,-0.01,0.0,32.75,2.388706,22.21646146578354,200.1414338922647,10.011338571839433,0.03162277660168379,0.34247051462162903,0.396991565828603
4348194,1988.0,1,206141.0,241644,0.57,-0.84,9.96,-0.03,-0.01,0.0,32.75,2.428704,68.0012397492302,205.2646320181574,10.01159827400201,0.03162277660168379,1.0189035215402586,0.40744003902651316
4388196,2043.0,1,206221.0,241750,0.55,-0.85,9.97,-0.03,-0.01,-0.0,32.75,2.468706,107.73492119798182,211.31961419392184,10.021272374304573,0.03162277660168379,1.6059364749802318,0.41978883316304183
4428193,1980.0,1,206188.0,241948,0.57,-0.84,9.96,-0.03,-0.01,0.0,32.75,2.508703,58.29198325690473,275.8062174826452,10.01159827400201,0.03162277660168379,0.8754571227526847,0.5513056180949317
4468196,1947.0,1,206234.0,242039,0.58,-0.82,9.95,-0.03,-0.01,-0.0,32.75,2.548706,7.001715183657688,408.49054200945045,10.00056498403965,0.03162277660168379,0.11768496442396904,0.821907803396827
4508193,1935.0,1,206329.0,242331,0.56,-0.82,9.97,-0.03,-0.01,0.0,32.75,2.588703,4.188970511007741,553.364343772746,10.01932632465876,0.03162277660168379,0.0761289406110755,1.117369739009435
4548196,1968.0,1,206501.0,242603,0.57,-0.84,9.96,-0.03,-0.01,-0.0,32.75,2.628706,27.08754804907716,612.4667903652474,10.01159827400201,0.03162277660168379,0.4144368726129176,1.2379058404792695
4588193,2000.0,1,206525.0,242186,0.56,-0.83,9.97,-0.03,-0.01,-0.0,32.75,2.668703,56.8730522686422,507.855335728367,10.020149699480543,0.03162277660168379,0.8544935669381649,1.0245566876437284
4628196,1990.0,1,206056.0,240343,0.55,-0.84,9.97,-0.03,-0.01,0.0,32.75,2.708706,47.82815764361382,241.95456562739489,10.020429132527209,0.03162277660168379,0.7208625765117652,0.4822670862202859
4668193,2000.0,1,205569.0,239539,0.56,-0.83,9.97,-0.03,-0.01,-0.0,32.75,2.748703,46.34057152513261,-93.42052503093879,10.020149699480543,0.03162277660168379,0.6988846967687401,-0.20171146777711654
4708196,2006.0,1,205394.0,239373,0.55,-0.84,9.97,-0.03,-0.01,-0.0,32.75,2.788706,59.67917892305614,-371.4134760722598,10.020429132527209,0.03162277660168379,0.8959518148931629,-0.7686623892109969
4748193,1996.0,1,205287.0,239377,0.56,-0.85,9.97,-0.03,-0.01,0.0,32.75,2.828703,36.12342151593299,-506.4120532091298,10.021826180891386,0.03162277660168379,0.5479345827357465,-1.0439843619923665
4788196,1988.0,1,205256.0,239359,0.59,-0.83,9.98,-0.03,-0.01,-0.0,32.75,2.868706,33.6797065524631,-495.0434524854903,10.031819376364389,0.03162277660168379,0.5118306739091392,-1.0207987429630436
4828213,2002.0,1,205343.0,239676,0.59,-0.85,9.97,-0.03,-0.01,-0.0,32.75,2.908723,42.012760354678505,-398.9701523904982,10.02354727628897,0.03162277660168379,0.6349447928713629,-0.8248626740446875
4868196,1994.0,1,205398.0,239865,0.59,-0.83,9.98,-0.03,-0.01,-0.0,32.75,2.948706,27.418807996595543,-292.86460853888826,10.031819376364389,0.03162277660168379,0.41933096996956204,-0.6084664106481688
4908193,1968.0,1,205369.0,239988,0.56,-0.83,9.97,-0.03,-0.01,0.0,32.75,2.988703,13.441891002251381,-218.77983819558867,10.020149699480543,0.03162277660168379,0.2128333446800989,-0.4573747061534463
4948196,1961.0,1,205434.0,240184,0.57,-0.84,9.96,-0.03,-0.01,-0.0,32.75,3.028706,-18.046147512860397,-172.12532687303445,10.01159827400201,0.03162277660168379,-0.25237691456554795,-0.3622254655547598
4988193,1977.0,1,205474.0,240442,0.56,-0.85,9.93,-0.03,-0.01,0.0,32.75,3.068703,26.700994020029754,-117.46489872031258,9.982033860892278,0.03162277660168379,0.408725849997797,-0.2507486097889108
5028214,2065.0,1,205596.0,240649,0.57,-0.84,9.96,-0.03,-0.01,-0.0,32.75,3.108724,81.9122471345641,-17.707780081545685,10.01159827400201,0.03162277660168379,1.2244273857528059,-0.04729960102814154
5068880,1958.0,1,205633.0,240856,0.53,-0.82,9.98,-0.03,-0.01,-0.0,32.59,3.14939,3.7371775297846255,138.2105795031704,10.027646782770123,0.03162277660168379,0.06945406533044156,0.27068708641802447
5109197,1965.0,1,205711.0,241208,0.57,-0.84,9.96,-0.03,-0.01,-0.0,32.59,3.189707,-11.3264730300856,319.1841388297761,10.01159827400201,0.03162277660168379,-0.15309916798003875,0.63977243851437
5149193,1991.0,1,205823.0,241547,0.56,-0.84,9.94,-0.03,-0.01,-0.0,32.59,3.229703,28.502955549241637,457.3006255699217,9.99113607153861,0.03162277660168379,0.435348371745318,0.9214532118189296
5189196,1963.0,1,205888.0,241878,0.57,-0.84,9.95,-0.03,-0.01,-0.0,32.59,3.269706,-5.357946020258872,480.4065299382351,10.001649863897455,0.03162277660168379,-0.0649190167704428,0.9685763986591284
5229207,1959.0,1,205869.0,240994,0.56,-0.83,9.94,-0.03,-0.01,-0.0,32.59,3.309717,-5.08335346594415,358.7782600739452,9.990300295786907,0.03162277660168379,-0.06086213423968848,0.7205224123488138
5269196,1971.0,1,205300.0,239454,0.57,-0.84,9.96,-0.03,-0.01,-0.0,32.59,3.349706,3.2841573079796285,132.43311883818677,10.01159827400201,0.03162277660168379,0.06276105856445072,0.2589042817271473
5309193,1968.0,1,204992.0,239074,0.57,-0.83,9.94,-0.03,-0.01,-0.0,32.59,3.389703,10.763929883295145,-107.70504339610915,9.99086582834541,0.03162277660168379,0.17326863867907252,-0.23084393613300927
5349196,1999.0,1,204889.0,239001,0.59,-0.83,9.96,-0.03,-0.01,-0.0,32.59,3.429706,28.72560517559182,-273.7810610733428,10.011922892232041,0.03162277660168379,0.43863783959659763,-0.5695465935114746
5389193,1951.0,1,204870.0,238943,0.57,-0.84,9.96,-0.03,-0.01,-0.0,32.59,3.469703,-0.2422025932759705,-327.54999455852993,10.01159827400201,0.03162277660168379,0.010661947879316722,-0.6792052962582671
5429196,1958.0,1,204809.0,238878,0.58,-0.82,9.94,-0.03,-0.01,0.0,32.59,3.509706,-8.869052179521173,-287.1833154040253,9.990615596648686,0.03162277660168379,-0.11679276577533867,-0.5968797342030248
5469193,1949.0,1,204724.0,239068,0.58,-0.85,9.95,-0.03,-0.01,-0.0,32.59,3.549703,-4.531582991015862,-200.34452307153788,10.003069528899616,0.03162277660168379,-0.05271017248563092,-0.41977692226233254
5509196,1915.0,1,204781.0,239229,0.58,-0.85,9.96,-0.03,-0.01,-0.0,32.59,3.589706,-40.5392990308376,-112.09248814822891,10.013016528499291,0.03162277660168379,-0.5846950055735946,-0.23979188188356468
5549193,1910.0,1,204825.0,239287,0.56,-0.83,9.95,-0.03,-0.01,-0.0,32.59,3.629703,-52.33752746913512,-46.494180533254145,10.000249996875077,0.03162277660168379,-0.7590042724968304,-0.10600783877203634
5589196,1930.0,1,204818.0,239318,0.56,-0.83,9.95,-0.03,-0.01,-0.0,32.59,3.669706,-12.585262484654203,-1.9690892738140628,10.000249996875077,0.03162277660168379,-0.17169676237177908,-0.015201430113440694
5629193,1984.0,1,204805.0,239416,0.55,-0.84,9.97,-0.03,-0.01,-0.0,32.59,3.709703,13.670133016065266,44.44427696597215,10.020429132527209,0.03162277660168379,0.216205435525521,0.07945600870983223
5669196,1933.0,1,204805.0,239511,0.58,-0.84,9.96,-0.03,-0.01,-0.0,32.59,3.749706,-3.61586872517301,123.29703353939209,10.01217259140093,0.03162277660168379,-0.03918123606733849,0.24027175180490384
5709193,1967.0,1,204844.0,239679,0.58,-0.81,9.94,-0.03,-0.01,0.0,32.59,3.789703,-3.7823659307450197,249.40755053584246,9.989799797793747,0.03162277660168379,-0.04164109739311328,0.4974670279650285
5749197,1985.0,1,204935.0,239915,0.57,-0.84,9.96,-0.03,-0.01,-0.0,32.59,3.829707,42.10967235456873,399.5108625183458,10.01159827400201,0.03162277660168379,0.636376589157159,0.8035942542849074
5789193,1984.0,1,204933.0,240107,0.57,-0.83,9.95,-0.03,-0.01,-0.0,32.59,3.869703,21.491466955055852,509.8076414010609,10.000814966791456,0.03162277660168379,0.3317593080748817,1.0285383047887253
5829196,1901.0,1,204928.0,240156,0.56,-0.83,9.97,-0.03,-0.01,-0.0,32.59,3.909706,-57.934732463073274,505.0790918362185,10.020149699480543,0.03162277660168379,-0.8416984417456181,1.0188946950396611
5869193,1923.0,1,204866.0,239538,0.58,-0.85,9.94,-0.03,-0.01,-0.0,32.59,3.949703,-30.215106217737446,347.4905935764502,9.993122635092595,0.03162277660168379,-0.43216342083295267,0.6975018541022058
5909196,1971.0,1,204341.0,238100,0.58,-0.83,9.93,-0.03,-0.01,-0.0,32.59,3.989706,-2.3600439425135127,70.81066861655258,9.981492874314943,0.03162277660168379,-0.020627442301246898,0.13322877519613496
5949193,1921.0,1,203878.0,237374,0.56,-0.84,9.97,-0.03,-0.01,-0.0,32.59,4.029703,-35.358380208670724,-230.72005180372605,10.020982985715523,0.03162277660168379,-0.5081511272613843,-0.48172609737359495
5989197,1947.0,1,203691.0,237109,0.57,-0.82,9.96,-0.03,-0.01,-0.0,32.59,4.069707,-27.95005327877478,-454.9439600033405,10.009940059760599,0.03162277660168379,-0.3986990986766446,-0.9390180930342384
6029193,1905.0,1,203618.0,236968,0.57,-0.83,9.98,-0.03,-0.01,0.0,32.59,4.109703,-71.78431313759796,-546.2609837932483,10.030662989055111,0.03162277660168379,-1.0463147760703813,-1.1252540050829305
6069883,1875.0,1,203663.0,236972,0.58,-0.86,9.95,-0.03,-0.01,-0.0,32.59,4.150393,-92.88483646697654,-513.5246906086546,10.003924230020935,0.03162277660168379,-1.3580579138199123,-1.0584901842169248
6108194,1970.0,1,203511.0,237242,0.58,-0.84,9.97,-0.03,-0.01,-0.0,32.59,4.188704,-31.266165193726884,-408.13036454301584,10.02212053409856,0.03162277660168379,-0.44769196569508646,-0.8435444093223124
6148196,1962.0,1,203624.0,237549,0.58,-0.84,9.97,-0.03,-0.01,-0.0,32.59,4.228706,-8.049462534731013,-288.47107001491366,10.02212053409856,0.03162277660168379,-0.10468399275840742,-0.5995060369941173
6188194,1989.0,1,203699.0,237666,0.58,-0.84,9.96,-0.03,-0.01,-0.0,32.59,4.268704,-23.081545157958658,-194.45558900909688,10.01217259140093,0.03162277660168379,-0.3267708353795376,-0.4077667738738289
6228196,1936.0,1,203735.0,237768,0.59,-0.82,9.97,-0.03,-0.01,-0.0,32.59,4.308706,-56.262265877385445,-136.8596581192794,10.021047849401779,0.03162277660168379,-0.8169891028792383,-0.29030312608525466
6268193,1963.0,1,203684.0,237859,0.59,-0.82,9.96,-0.03,-0.01,0.0,32.59,4.348703,-44.26001834494131,-97.57532945678027,10.01109884078666,0.03162277660168379,-0.6396656191246345,-0.21018495672273466
6308196,2003.0,1,203722.0,238073,0.57,-0.82,9.96,-0.03,-0.01,0.0,32.59,4.388706,-22.82691940363409,-40.786084077653825,10.009940059760599,0.03162277660168379,-0.32300894614267384,-0.09436649846821318
6348193,1968.0,1,203783.0,238315,0.57,-0.82,9.95,-0.03,-0.01,-0.0,32.59,4.428703,-33.443121578326355,63.66465605602203,9.999989999994998,0.03162277660168379,-0.47985473263148837,0.11865488621587565
6388196,2053.0,1,203858.0,238558,0.57,-0.84,9.94,-0.03,-0.01,0.0,32.59,4.468706,0.12600501843740597,212.44587150387926,9.991701556792016,0.03162277660168379,0.01610191704154932,0.4220857713309348
6428194,2000.0,1,203798.0,238901,0.57,-0.83,9.96,-0.03,-0.01,0.0,32.59,4.508704,-8.641297246458132,355.6093342209345,10.010764206592823,0.03162277660168379,-0.11342787115340525,0.7140595670659021
6468196,2001.0,1,204010.0,239236,0.55,-0.82,9.96,-0.03,-0.01,-0.0,32.59,4.548706,-63.414704480069936,416.699486708612,10.008821109401447,0.03162277660168379,-0.9226605887355752,0.838649482434932
6508193,1990.0,1,204100.0,238960,0.58,-0.84,9.95,-0.03,-0.01,-0.0,32.59,4.588703,-39.36998393081354,342.7008577099643,10.00222475252381,0.03162277660168379,-0.5674193222832246,0.6877334583470003
6548196,2078.0,1,203600.0,237423,0.55,-0.82,9.95,-0.03,-0.01,-0.0,32.59,4.628706,13.107554743500753,148.85205277343758,9.998869936147784,0.03162277660168379,0.2078937973172502,0.29238977007742134
6588193,2054.0,1,203138.0,236659,0.57,-0.84,9.95,-0.03,-0.01,0.0,32.59,4.668703,-0.2123085841908254,-83.21471835933488,10.001649863897455,0.03162277660168379,0.011103607645126452,-0.1808973015374056
6628197,2064.0,1,203163.0,236371,0.6,-0.84,9.96,-0.03,-0.01,-0.0,32.59,4.708707,0.3343225427242538,-257.87399209288293,10.013351087423231,0.03162277660168379,0.019179639695895857,-0.5371050248242041
6668198,2161.0,1,203106.0,236245,0.56,-0.83,9.96,-0.03,-0.01,0.0,32.59,4.748708,87.14390504441766,-324.7234478524082,10.010199798205829,0.03162277660168379,1.3017208929796684,-0.6734407139064167
6708196,2199.0,1,203081.0,236130,0.55,-0.8,9.96,-0.03,-0.01,0.0,32.59,4.788706,132.75322866227827,-297.0961119694231,10.007202406267199,0.03162277660168379,1.97556169935764,-0.6170963228815755
6748193,2205.0,1,203014.0,236487,0.57,-0.85,9.96,-0.03,-0.01,-0.0,32.59,4.828703,119.85028583251837,-224.30996507518236,10.012442259508916,0.03162277660168379,1.7849311722772183,-0.46865308755947654
6788196,2205.0,1,203099.0,236714,0.56,-0.83,9.97,-0.03,-0.01,-0.0,32.59,4.868706,132.9466031948013,-150.04492957283506,10.020149699480543,0.03162277660168379,1.9784186514146367,-0.31719374245501314
6828193,2181.0,1,203114.0,236794,0.57,-0.82,9.98,-0.03,-0.01,-0.0,32.59,4.908703,91.49951675217876,-89.11730865133805,10.029840477295739,0.03162277660168379,1.3660715272933448,-0.1929353010347398
6868197,2090.0,1,203133.0,236858,0.58,-0.85,9.96,-0.03,-0.01,-0.0,32.59,4.948707,11.269329866067126,-30.29969421336515,10.013016528499291,0.03162277660168379,0.18073551397825197,-0.07298009865554433
6908193,2096.0,1,203163.0,237037,0.57,-0.83,9.97,-0.03,-0.01,-0.0,32.59,4.988703,7.559918316395594,46.8454902626366,10.020713547447608,0.03162277660168379,0.12593196348579078,0.08435314759772022
6948196,2112.0,1,203299.0,237184,0.57,-0.83,9.96,-0.03,-0.01,-0.0,32.59,5.028706,27.468772849273723,155.76240155643652,10.010764206592823,0.03162277660168379,0.4200691601892047,0.30648303609468946
6988193,2119.0,1,203372.0,237313,0.56,-0.83,9.94,-0.03,-0.01,-0.0,32.59,5.068703,35.228562437718786,293.4090989480093,9.990300295786907,0.03162277660168379,0.5347137648189823,0.5872057005585195
7028196,2160.0,1,203476.0,237528,0.61,-0.82,9.95,-0.03,-0.01,-0.0,32.59,5.108706,72.780782804496,435.62364791091665,10.002349723939869,0.03162277660168379,1.089517398068288,0.8772442402905551
7068193,2149.0,1,203463.0,237636,0.57,-0.85,9.95,-0.03,-0.01,0.0,32.59,5.148703,71.22354595297868,536.6164534893938,10.002494688826381,0.03162277660168379,1.0665104851717107,1.083213362768051
7108883,2073.0,1,203376.0,237828,0.56,-0.81,9.98,-0.03,-0.01,-0.0,32.61,5.189393,-12.346207050808706,539.2862207772615,10.028464488644312,0.03162277660168379,-0.16816491200580688,1.0886582023519353
7149193,2014.0,1,203460.0,237479,0.58,-0.83,9.95,-0.03,-0.01,-0.0,32.61,5.229703,-57.32213279010894,402.79115813701895,10.001389903408425,0.03162277660168379,-0.8326477778709291,0.8102842319142531
7189196,2057.0,1,203103.0,236054,0.57,-0.84,9.99,-0.03,-0.01,-0.0,32.61,5.269706,-22.54414222209608,137.04884534378806,10.041444119248984,0.03162277660168379,-0.3188311423754142,0.2683177952196116
7229193,2037.0,1,202510.0,234945,0.58,-0.83,9.98,-0.03,-0.01,0.0,32.61,5.309703,-26.66109271267997,-184.2828571268428,10.0312362149438,0.03162277660168379,-0.37965575055502043,-0.38702006179879334
7269196,2034.0,1,202294.0,234421,0.57,-0.83,9.96,-0.03,-0.01,-0.0,32.61,5.349706,-37.57608746269156,-452.76233589866735,10.010764206592823,0.03162277660168379,-0.5409159552794538,-0.9345687939000925
7309193,2045.0,1,202187.0,234210,0.58,-0.83,9.98,-0.03,-0.01,-0.0,32.61,5.389703,-9.483591877483939,-581.6611644419537,10.0312362149438,0.03162277660168379,-0.1258720919476817,-1.1974506739643875
7349196,2003.0,1,202177.0,234286,0.57,-0.84,9.93,-0.03,-0.01,-0.0,32.61,5.429706,-58.174714370500205,-549.8239667787805,9.981753352993652,0.03162277660168379,-0.8452439800081799,-1.1325205076296099
7389193,1975.0,1,202252.0,234672,0.56,-0.84,9.97,-0.03,-0.01,-0.0,32.61,5.469703,-71.97970781153147,-403.8565158259883,10.020982985715523,0.03162277660168379,-1.0492015740801144,-0.8348281362689443
7429196,2070.0,1,202423.0,234970,0.58,-0.83,9.98,-0.03,-0.01,-0.0,32.61,5.509706,24.642027793149374,-223.19588762292048,10.0312362149438,0.03162277660168379,0.37830629205279004,-0.4663809895233839
7469194,2106.0,1,202443.0,235125,0.59,-0.85,9.96,-0.03,-0.01,-0.0,32.61,5.549704,62.177947985329276,-75.35892805219693,10.013600750978641,0.03162277660168379,0.9328691034278934,-0.1648758609341826
7509196,2077.0,1,202561.0,235176,0.56,-0.81,9.95,-0.03,-0.01,0.0,32.61,5.589706,50.310857594262295,13.07623959533078,9.998609903381569,0.03162277660168379,0.7575424569405201,0.015482668291520413
7549196,2063.0,1,202498.0,235366,0.57,-0.83,9.94,-0.03,-0.01,0.0,32.61,5.629706,24.6360884490985,59.99188521394718,9.99086582834541,0.03162277660168379,0.37821854305615665,0.11116447753705877
7589196,2033.0,1,202591.0,235518,0.56,-0.81,9.95,-0.03,-0.01,0.0,32.61,5.669706,16.110372046166447,110.0091108005949,9.998609903381569,0.03162277660168379,0.2522579902526088,0.21317178393707298
7629193,2019.0,1,202641.0,235693,0.59,-0.83,9.95,-0.03,-0.01,0.0,32.61,5.709703,-1.0512793565591758,205.15675360163672,10.001974805007258,0.03162277660168379,-0.0012915058302870345,0.4072200270894474
7669197,1943.0,1,202697.0,236010,0.58,-0.84,9.97,-0.03,-0.01,0.0,32.61,5.749707,-79.60246248262953,354.4109969782249,10.02212053409856,0.03162277660168379,-1.1618215988239742,0.7116156259465398
7709194,1953.0,1,202718.0,236211,0.56,-0.82,9.98,-0.03,-0.01,-0.0,32.61,5.789704,-39.32516775129045,515.6259478285821,10.029277142446508,0.03162277660168379,-0.5667571995382867,1.0404044121051568
7749197,2005.0,1,202832.0,236478,0.59,-0.8,9.96,-0.03,-0.01,0.0,32.61,5.829707,-26.576981267667417,605.9466679596273,10.0094805060003,0.03162277660168379,-0.37841307209726144,1.2246084191170332
7789194,1866.0,1,202890.0,236197,0.57,-0.83,9.96,-0.03,-0.01,-0.0,32.61,5.869704,-108.77453063055903,546.0870325538855,10.010764206592823,0.03162277660168379,-1.592815272161768,1.102528073831814
7827197,2015.0,1,202609.0,234547,0.58,-0.82,9.97,-0.03,-0.01,0.0,32.61,5.907707,-10.343362339888582,316.4916437624137,10.020464061110143,0.03162277660168379,-0.1385745039926574,0.6342812469079671
7867193,2032.0,1,201984.0,233224,0.55,-0.83,9.96,-0.03,-0.01,-0.0,32.61,5.947703,52.84843247042024,-17.031138151527717,10.00964534836275,0.03162277660168379,0.7950330699371388,-0.04591962803146126
7907196,2015.0,1,201706.0,232652,0.59,-0.82,9.95,-0.03,-0.01,0.0,32.61,5.987706,10.637187689400236,-334.1996094770745,10.001149933882603,0.03162277660168379,0.17139612544358102,-0.6927668102863294
7947193,2017.0,1,201573.0,232549,0.56,-0.84,9.98,-0.03,-0.01,-0.0,32.61,6.027703,22.196645125762235,-527.7480857322771,10.03093216007366,0.03162277660168379,0.34217774425188413,-1.0874979951741792
7987196,1952.0,1,201519.0,232501,0.6,-0.84,9.97,-0.03,-0.01,-0.0,32.61,6.067706,-33.06335708979647,-557.7460028959457,10.023297860484842,0.03162277660168379,-0.47424401997701515,-1.1486770528205408
8027193,1967.0,1,201541.0,232858,0.58,-0.84,9.99,-0.03,-0.01,-0.0,32.61,6.107703,-39.76081906126583,-458.60765619115057,10.042016729721176,0.03162277660168379,-0.5731935947032979,-0.946489994468257
8067196,1999.0,1,201664.0,233095,0.56,-0.85,9.97,-0.03,-0.01,0.0,32.61,6.147706,22.307350970809118,-304.6765097763037,10.021826180891386,0.03162277660168379,0.3438133334248824,-0.6325561160358542
8107194,1992.0,1,201757.0,233231,0.57,-0.83,9.96,-0.03,-0.01,-0.0,32.61,6.187704,-20.381268306683292,-164.88614331652775,10.010764206592823,0.03162277660168379,-0.2868764325124312,-0.34746155959089814
8147883,1910.0,1,201822.0,233239,0.58,-0.81,9.95,-0.03,-0.01,-0.0,32.55,6.228393,-67.4194426501911,-72.84878142304255,9.999749996874922,0.03162277660168379,-0.9818273507883747,-0.15975655866769567
8188193,1947.0,1,201850.0,233391,0.55,-0.82,9.97,-0.03,-0.01,0.0,32.55,6.268703,-67.19135373463477,-20.97055370072521,10.018772379887668,0.03162277660168379,-0.9784575218456766,-0.053953843529236566
8228196,1926.0,1,201947.0,233443,0.58,-0.82,9.95,-0.03,-0.01,-0.0,32.55,6.308706,-59.45844327089194,26.020381651816024,10.00056498403965,0.03162277660168379,-0.8642100345074387,0.04188151487595962
8268193,1970.0,1,201943.0,233772,0.57,-0.83,9.96,-0.03,-0.01,-0.0,32.55,6.348703,-42.14599526755625,106.3489507497917,10.010764206592823,0.03162277660168379,-0.608432640817345,0.20570709425474393
8308232,1967.0,1,202071.0,234086,0.57,-0.83,9.95,-0.03,-0.01,0.0,32.55,6.388742,-33.0639399949427,233.7250413777086,10.000814966791456,0.03162277660168379,-0.4742526319283142,0.4654834363513057
8348193,1995.0,1,202147.0,234326,0.58,-0.83,9.97,-0.03,-0.01,-0.0,32.55,6.428703,-13.09845482393732,378.81650202840206,10.021287342452565,0.03162277660168379,-0.17927876342548718,0.7613892749704695
8388197,2004.0,1,202216.0,234663,0.58,-0.83,9.96,-0.03,-0.01,-0.0,32.55,6.468707,-11.818209071395202,474.10829882816336,10.011338571839433,0.03162277660168379,-0.16036416961385855,0.9557315120608062
8428194,2005.0,1,202294.0,234850,0.57,-0.83,9.95,-0.03,-0.01,-0.0,32.55,6.508704,-3.648207848874018,448.2573290874327,10.000814966791456,0.03162277660168379,-0.039659020420705016,0.9030099194464377
8468197,2054.0,1,202202.0,233710,0.56,-0.83,9.94,-0.03,-0.01,-0.0,32.55,6.548707,28.97657322719258,274.14298098373075,9.990300295786907,0.03162277660168379,0.44234568923897954,0.5479135412020113
8508231,2018.0,1,201696.0,232230,0.57,-0.85,9.95,-0.03,-0.01,-0.0,32.55,6.588741,-0.027225841394131565,-3.742750282605083,10.002494688826381,0.03162277660168379,0.01383805522645239,-0.018818711557012063
8548196,2032.0,1,201391.0,231607,0.57,-0.83,9.92,-0.03,-0.01,-0.0,32.55,6.628706,5.227354928963673,-288.0118226110272,9.970967856732866,0.03162277660168379,0.09147022914646918,-0.598569427854122
8588193,2087.0,1,201287.0,231562,0.57,-0.82,9.95,-0.03,-0.01,-0.0,32.55,6.668703,55.59239323902418,-482.3341072183029,9.999989999994998,0.03162277660168379,0.8355728672925535,-0.994878751168064
8628196,2046.0,1,201351.0,231651,0.58,-0.83,9.94,-0.03,-0.01,-0.0,32.55,6.708706,18.154470310537747,-540.3380128875848,9.99144133746478,0.03162277660168379,0.28245788609672035,-1.113174440475219
8668194,2034.0,1,201287.0,232007,0.57,-0.84,9.95,-0.03,-0.01,0.0,32.55,6.748704,-6.7317401575244,-477.48093027707137,10.001649863897455,0.03162277660168379,-0.08521571217878737,-0.9849809709243343
8708196,2061.0,1,201421.0,232495,0.58,-0.83,9.92,-0.03,-0.01,-0.0,32.55,6.788706,28.01548610707214,-347.8940263193888,9.971544514266585,0.03162277660168379,0.42814640565723766,-0.7206957999177812
8748194,2066.0,1,201582.0,232818,0.57,-0.83,9.96,-0.03,-0.01,-0.0,32.55,6.828704,22.265274474752285,-210.59516965373305,10.010764206592823,0.03162277660168379,0.3431916872836229,-0.44068253696694704
8788197,2039.0,1,201704.0,233017,0.56,-0.86,9.94,-0.03,-0.01,-0.0,32.55,6.868707,-1.5658596952312478,-105.16462812813873,9.992837434883047,0.03162277660168379,-0.008894013450488908,-0.22566290268735748
8828194,2054.0,1,201732.0,233355,0.57,-0.85,9.95,-0.03,-0.01,-0.0,32.55,6.908704,11.16495193183862,-41.855955885428585,10.002494688826381,0.03162277660168379,0.17919341456108234,-0.09654844158929567
8868196,2079.0,1,201846.0,233617,0.56,-0.83,9.94,-0.03,-0.01,-0.0,32.55,6.948706,31.719194429626093,-3.0024226884448333,9.990300295786907,0.03162277660168379,0.4828656955894663,-0.017308855245548642
8908193,2096.0,1,201918.0,233951,0.56,-0.83,9.97,-0.03,-0.01,-0.0,32.55,6.988703,56.134092646154585,46.403835040315705,10.020149699480543,0.03162277660168379,0.8435760371789027,0.08345241671834733
8947196,2160.0,1,202005.0,234304,0.56,-0.82,9.97,-0.03,-0.01,-0.0,32.55,7.027706,107.9262207010705,138.74559764936475,10.01932632465876,0.03162277660168379,1.6087627701584069,0.2717782257071054
8987193,2138.0,1,202066.0,234689,0.56,-0.83,9.96,-0.03,-0.01,0.0,32.55,7.067703,103.63988750676819,278.3741395864619,10.010199798205829,0.03162277660168379,1.5454356697555787,0.5565427501785899
9027196,2130.0,1,202262.0,234999,0.57,-0.83,9.96,-0.03,-0.01,-0.0,32.55,7.107706,74.57466275721545,425.0727425107859,10.010764206592823,0.03162277660168379,1.1160205210703662,0.855726264686646
9067193,2139.0,1,202374.0,235275,0.58,-0.83,9.98,-0.03,-0.01,-0.0,32.55,7.147703,112.28258108226292,504.85298065021675,10.0312362149438,0.03162277660168379,1.6731244655154984,1.0184335540475244
9107196,2112.0,1,202431.0,235144,0.58,-0.83,9.94,-0.03,-0.01,-0.0,32.55,7.187706,57.22935753105796,451.46048303125366,9.99144133746478,0.03162277660168379,0.8597576885321306,0.9095425709872098
9147880,1988.0,1,202183.0,233784,0.56,-0.83,9.96,-0.03,-0.01,-0.0,32.45,7.22839,-33.6444839159921,254.3702361651194,10.010199798205829,0.03162277660168379,-0.4828296980382041,0.5075881449925139
9188197,2034.0,1,201817.0,232898,0.56,-0.85,9.96,-0.03,-0.01,-0.0,32.45,7.268707,-11.42320538493659,-24.074638421133475,10.011877945720274,0.03162277660168379,-0.15452831015591845,-0.060284448984706224
9228193,1972.0,1,201567.0,232586,0.55,-0.84,9.98,-0.03,-0.01,-0.0,32.45,7.308703,-49.4540969035034,-279.66928094109863,10.030378856254634,0.03162277660168379,-0.7164039218808153,-0.5815552853402585
9268197,1957.0,1,201552.0,232497,0.55,-0.82,9.95,-0.03,-0.01,0.0,32.45,7.348707,-73.44250806906159,-424.5935155676058,9.998869936147784,0.03162277660168379,-1.0708132628076799,-0.8771200759287259
9308193,2001.0,1,201460.0,232647,0.56,-0.83,9.97,-0.03,-0.01,-0.0,32.45,7.388703,-17.95211394397326,-431.4393755066126,10.020149699480543,0.03162277660168379,-0.25098764476588153,-0.891081820591274
9348196,1981.0,1,201611.0,232999,0.57,-0.84,9.94,-0.03,-0.01,-0.0,32.45,7.428706,-38.30102388074358,-336.0709296097449,9.991701556792016,0.03162277660168379,-0.5516263035539816,-0.6965832619968534
9388193,1988.0,1,201760.0,233231,0.56,-0.84,9.97,-0.03,-0.01,-0.0,32.45,7.468703,-20.072235499363035,-204.81975624047885,10.020982985715523,0.03162277660168379,-0.2823107231450513,-0.4289039075303346
9428197,2014.0,1,201784.0,233342,0.56,-0.82,9.97,-0.03,-0.01,-0.0,32.45,7.508707,0.9065538560662658,-93.19465886818472,10.01932632465876,0.03162277660168379,0.027633893761310428,-0.20125082649605355
9468193,1946.0,1,201867.0,233520,0.57,-0.83,9.95,-0.03,-0.01,-0.0,32.45,7.548703,-48.322517746145614,-21.371172487733094,10.000814966791456,0.03162277660168379,-0.6996857565718283,-0.05477088291669961
9508196,1983.0,1,201938.0,233678,0.57,-0.84,9.96,-0.03,-0.01,0.0,32.45,7.588706,-21.511689795571403,25.67460278510248,10.01159827400201,0.03162277660168379,-0.3035774942076558,0.04117631840834678
9548194,1975.0,1,202010.0,233851,0.58,-0.84,9.96,-0.03,-0.01,-0.0,32.45,7.628704,-9.376321005723774,81.07895663972776,10.01217259140093,0.03162277660168379,-0.12428725172217503,0.15417036862316513
9588196,1955.0,1,202110.0,233940,0.56,-0.83,9.97,-0.03,-0.01,0.0,32.45,7.668706,-37.388547676601846,173.17242224838432,10.020149699480543,0.03162277660168379,-0.53814520687403,0.34198978990448503
9628194,1953.0,1,202134.0,234185,0.57,-0.83,9.99,-0.03,-0.01,0.0,32.45,7.708704,-22.570662813768237,304.35353514650484,10.04061253111582,0.03162277660168379,-0.31922296263189764,0.6095262599974135
9668197,1959.0,1,202285.0,234375,0.57,-0.83,9.95,-0.03,-0.01,0.0,32.45,7.748707,-23.740885330863218,439.4959958576614,10.000814966791456,0.03162277660168379,-0.3365120522743529,0.8851416752013893
9708194,1947.0,1,202311.0,234567,0.54,-0.85,9.96,-0.03,-0.01,-0.0,32.45,7.788704,-16.80436176468723,514.4205702945,10.01077919045266,0.03162277660168379,-0.23403053616036587,1.0379461127092056
9748196,1970.0,1,202365.0,234413,0.56,-0.82,9.94,-0.03,-0.01,-0.0,32.45,7.828706,-7.063385193617554,468.5814937855736,9.98947446065107,0.03162277660168379,-0.0901154989071472,0.9444599053537142
9788193,1947.0,1,202188.0,233379,0.58,-0.84,9.93,-0.03,-0.01,-0.0,32.45,7.868703,-5.432573652075608,286.9342420632407,9.982329387472646,0.03162277660168379,-0.06602157957147885,0.5740005956692721
9828196,1978.0,1,201741.0,232307,0.56,-0.83,9.95,-0.03,-0.01,-0.0,32.45,7.908706,7.606725150191694,20.535372457850414,10.000249996875077,0.03162277660168379,0.12662349653489768,0.030695148441330578
9868193,1936.0,1,201463.0,231880,0.57,-0.82,9.98,-0.03,-0.01,-0.0,32.45,7.948703,-10.962683449924592,-234.80946439083314,10.029840477295739,0.03162277660168379,-0.14772447165475489,-0.49006622335772126
9908196,1967.0,1,201376.0,231770,0.56,-0.82,9.96,-0.03,-0.01,-0.0,32.45,7.988706,6.503723903679133,-390.1513960111602,10.009375604901637,0.03162277660168379,0.1103275467064535,-0.8068773185295997
9947228,1998.0,1,201323.0,231792,0.57,-0.84,9.95,-0.03,-0.01,-0.0,32.45,8.027738,51.32449773680101,-408.75685862482237,10.001649863897455,0.03162277660168379,0.7725181688530268,-0.8448221086151275
9987197,1981.0,1,201396.0,232126,0.56,-0.83,9.97,-0.03,-0.01,-0.0,32.45,8.067707,29.47194554430433,-315.9179939706329,10.020149699480543,0.03162277660168379,0.4496644139018725,-0.6554824880837267
10027193,1953.0,1,201491.0,232463,0.56,-0.84,9.98,-0.03,-0.01,0.0,32.45,8.107703,6.167447774763955,-173.54181556753946,10.03093216007366,0.03162277660168379,0.10535933933349587,-0.3651143142379443
10067197,1941.0,1,201602.0,232732,0.54,-0.83,9.97,-0.03,-0.01,-0.0,32.45,8.147707,-6.746218065493432,-42.7741237901928,10.019051851348012,0.03162277660168379,-0.0854296115398535,-0.09842099316906473
10107196,1908.0,1,201648.0,232886,0.56,-0.82,9.95,-0.03,-0.01,0.0,32.45,8.187706,-37.39013820881558,41.71388603286314,9.999424983467799,0.03162277660168379,-0.5381687056989293,0.07388753062575745
10147907,1926.0,1,201604.0,233053,0.55,-0.85,9.98,-0.03,-0.01,-0.0,32.47,8.228417,-23.513467255107777,77.39944781503017,10.031221261641077,0.03162277660168379,-0.33315213444623665,0.14666621820937886
10188196,1947.0,1,201673.0,233286,0.58,-0.82,9.95,-0.03,-0.01,-0.0,32.47,8.268706,3.6753036511532784,85.76238730319639,10.00056498403965,0.03162277660168379,0.0685399289003553,0.16372196092138333
10228196,1963.0,1,201704.0,233511,0.56,-0.83,9.95,-0.03,-0.01,-0.0,32.47,8.308706,7.790882459464388,99.48896616402524,10.000249996875077,0.03162277660168379,0.12934427158564007,0.19171654317294903
10268197,1975.0,1,201655.0,233677,0.56,-0.85,9.94,-0.03,-0.01,0.0,32.47,8.348707,32.29357150715789,147.52206760222415,9.99198178541174,0.03162277660168379,0.491351651582409,0.28967734044390603
10308196,1974.0,1,201701.0,233902,0.57,-0.83,9.96,-0.03,-0.01,-0.0,32.47,8.388706,11.980687340682733,237.00865169227984,10.010764206592823,0.03162277660168379,0.19124524436439316,0.4721801741157076
10348210,1892.0,1,201729.0,234235,0.55,-0.85,9.98,-0.03,-0.01,0.0,32.47,8.42872,-54.431217841533574,339.0787110127652,10.031221261641077,0.03162277660168379,-0.7899368515603423,0.6803462947521923
10388196,1931.0,1,201867.0,234429,0.55,-0.83,9.97,-0.03,-0.01,0.0,32.47,8.468706,-36.11724081957935,394.1007189216438,10.019595800230666,0.03162277660168379,-0.5193626780019198,0.7925605720071727
10428197,1966.0,1,201878.0,234043,0.57,-0.83,9.97,-0.03,-0.01,-0.0,32.47,8.508707,10.37988922881007,343.5280920253362,10.020713547447608,0.03162277660168379,0.1675947491369174,0.6894205560075166
10468196,1979.0,1,201581.0,232973,0.57,-0.82,9.96,-0.03,-0.01,-0.0,32.47,8.548706,8.453220939041376,170.96118502237715,10.009940059760599,0.03162277660168379,0.1391297860324832,0.33748009648205246
10508194,1991.0,1,201276.0,232267,0.56,-0.83,9.96,-0.03,-0.01,-0.0,32.47,8.588704,22.548347896822406,-79.77394687809918,10.010199798205829,0.03162277660168379,0.3473738677647473,-0.17388004245071734
10548197,1998.0,1,201061.0,231858,0.55,-0.83,9.96,-0.03,-0.01,-0.0,32.47,8.628707,24.210604873340404,-326.58794762529647,10.00964534836275,0.03162277660168379,0.3719323679268867,-0.6772432558784076
10588194,1978.0,1,200871.0,231645,0.58,-0.83,9.96,-0.03,-0.01,-0.0,32.47,8.668704,-5.109412617268149,-495.44597874553614,10.011338571839433,0.03162277660168379,-0.0612471370888606,-1.0216196725340254
10628197,1949.0,1,200854.0,231660,0.59,-0.84,9.95,-0.03,-0.01,0.0,32.47,8.708707,-28.748334573771956,-556.8882444741038,10.0028096053059,0.03162277660168379,-0.4104930580881957,-1.1469277029690093
10668197,1945.0,1,200829.0,232033,0.57,-0.84,9.95,-0.03,-0.01,-0.0,32.47,8.748707,-52.25150539351882,-529.7517232074396,10.001649863897455,0.03162277660168379,-0.7577333660197851,-1.0915843006308739
10708197,1933.0,1,200978.0,232339,0.57,-0.83,9.97,-0.03,-0.01,-0.0,32.47,8.788707,-52.44162053347776,-456.17233421854314,10.020713547447608,0.03162277660168379,-0.7605421631922218,-0.9415232928623852
10748196,1919.0,1,200991.0,232486,0.58,-0.83,9.97,-0.03,-0.01,-0.0,32.47,8.828706,-86.5934975610489,-371.0785228399492,10.021287342452565,0.03162277660168379,-1.2651084783692352,-0.7679792710132713
10788196,1852.0,1,201065.0,232738,0.58,-0.83,9.96,-0.03,-0.01,-0.0,32.47,8.868706,-149.51839227007292,-287.76908719358505,10.011338571839433,0.03162277660168379,-2.1947728195298066,-0.5980743826809695
10828194,1893.0,1,201164.0,233003,0.58,-0.85,9.95,-0.03,-0.01,-0.0,32.47,8.908704,-111.62989568174412,-203.6061736776714,10.003069528899616,0.03162277660168379,-1.6350009775389154,-0.42642887444175276
10868197,2001.0,1,201279.0,233320,0.57,-0.82,9.95,-0.03,-0.01,0.0,32.47,8.948707,-23.570209024599645,-113.06155836575422,9.999989999994998,0.03162277660168379,-0.33399044812152956,-0.24176824585503257
10906197,2033.0,1,201453.0,233666,0.58,-0.83,9.96,-0.03,-0.01,-0.0,32.47,8.986707,32.87851547113071,-14.065445852808859,10.011338571839433,0.03162277660168379,0.4999937247618284,-0.03987126610303922
10946197,2118.0,1,201543.0,233878,0.57,-0.83,9.96,-0.03,-0.01,-0.0,32.47,9.026707,74.30535935192732,93.42027681558812,10.010764206592823,0.03162277660168379,1.1120417814315127,0.17933979403199338
10986196,2125.0,1,201602.0,234150,0.58,-0.83,9.94,-0.03,-0.01,-0.0,32.47,9.066706,120.7440433971837,206.89078145550246,9.99144133746478,0.03162277660168379,1.7981357162236815,0.41075647895219647
11026199,2183.0,1,201741.0,234415,0.57,-0.83,9.96,-0.03,-0.01,0.0,32.47,9.106709,135.54630782038882,313.7895802829514,10.010764206592823,0.03162277660168379,2.0168271811250933,0.6287705410655507
11066197,2130.0,1,201857.0,234725,0.57,-0.82,9.96,-0.03,-0.01,-0.0,32.47,9.146707,106.81845545617358,385.81216744388536,10.009940059760599,0.03162277660168379,1.5923964361133538,0.7756565394406462
11106197,2149.0,1,201914.0,234743,0.57,-0.82,9.95,-0.03,-0.01,-0.0,32.47,9.186707,112.75031563507274,387.99923505246426,9.999989999994998,0.03162277660168379,1.6800348646013725,0.7801169402935357
11146196,2121.0,1,201865.0,234036,0.56,-0.82,9.93,-0.03,-0.01,-0.0,32.47,9.226706,72.43446873368052,302.090527126022,9.979524036746442,0.03162277660168379,1.0844008882359222,0.6049109829638807
11186883,2027.0,1,201677.0,233105,0.58,-0.84,9.96,-0.03,-0.01,-0.0,32.35,9.267393,3.2197924265257467,146.38742741044467,10.01217259140093,0.03162277660168379,0.061810119585730114,0.2873633058620375
11227196,2096.0,1,201496.0,232698,0.58,-0.83,9.95,-0.03,-0.01,-0.0,32.35,9.307706,31.320270253248104,-26.722265067469344,10.001389903408425,0.03162277660168379,0.476971914069125,-0.06568413398078332
11267197,2062.0,1,201461.0,232616,0.56,-0.84,9.95,-0.03,-0.01,-0.0,32.35,9.347707,39.26408100842591,-156.759269936119,10.001084941145134,0.03162277660168379,0.5943352823539121,-0.3308872603716552
11307196,2085.0,1,201400.0,232687,0.56,-0.84,9.94,-0.03,-0.01,0.0,32.35,9.387706,19.56300443682174,-206.62129929756276,9.99113607153861,0.03162277660168379,0.30326783669845253,-0.4325780528365036
11347197,2064.0,1,201473.0,232894,0.57,-0.82,9.96,-0.03,-0.01,-0.0,32.35,9.427707,32.67458696163134,-178.2229055755085,10.009940059760599,0.03162277660168379,0.4969808462452371,-0.3746611329014812
11387194,2090.0,1,201588.0,233206,0.57,-0.83,9.97,-0.03,-0.01,-0.0,32.35,9.467704,30.792579782377985,-104.33811550747768,10.020713547447608,0.03162277660168379,0.46917571486677934,-0.22397727688243962
11427196,2064.0,1,201694.0,233473,0.57,-0.84,9.97,-0.03,-0.01,-0.0,32.35,9.507706,25.65607682047577,-25.46195660439835,10.021546786798933,0.03162277660168379,0.3932880449067796,-0.06311380605789002
11467194,2064.0,1,201733.0,233644,0.58,-0.84,9.96,-0.03,-0.01,-0.0,32.35,9.547704,7.163014902719706,31.883331527200582,10.01217259140093,0.03162277660168379,0.12006803709726621,0.05383866998265816
11507197,2018.0,1,201803.0,233919,0.57,-0.84,9.94,-0.03,-0.01,-0.0,32.35,9.587707,-18.744029275945113,63.93559002790446,9.991701556792016,0.03162277660168379,-0.26268755223107415,0.1192074407480359
11547196,2047.0,1,201869.0,234153,0.57,-0.82,9.97,-0.03,-0.01,-0.0,32.35,9.627706,-14.12292840202967,85.29997579588114,10.019890218959487,0.03162277660168379,-0.1944145305716665,0.162778898771167
11587202,2016.0,1,201947.0,234383,0.57,-0.81,9.95,-0.03,-0.01,-0.0,32.35,9.667712,-12.747237184984522,118.17426685757856,9.999174965965942,0.03162277660168379,-0.174089807346484,0.22982415851282337
11627196,2030.0,1,202029.0,234616,0.59,-0.84,9.95,-0.03,-0.01,-0.0,32.35,9.707706,-36.845128253834645,180.59957065389483,10.0028096053059,0.03162277660168379,-0.5301166251501058,0.3571370395608422
11667197,1990.0,1,202122.0,234813,0.58,-0.85,9.97,-0.03,-0.01,-0.0,32.35,9.747707,-32.08170458717279,275.1032863844308,10.022963633576648,0.03162277660168379,-0.4597408995296893,0.549872029824638
11707196,2038.0,1,202255.0,235050,0.57,-0.83,9.99,-0.03,-0.01,-0.0,32.35,9.787706,-28.664525860404982,380.0450109928236,10.04061253111582,0.03162277660168379,-0.4092548522452442,0.7638947496120372
11747197,1972.0,1,202313.0,235259,0.58,-0.83,9.96,-0.03,-0.01,-0.0,32.35,9.827707,-50.80113684681343,450.809132164404,10.011338571839433,0.03162277660168379,-0.7363053457481912,0.9082141776853153
11787233,2040.0,1,202336.0,235475,0.56,-0.8,9.95,-0.03,-0.01,0.0,32.35,9.867743,-18.63512340425915,437.69097680525095,9.997804759045856,0.03162277660168379,-0.2610785562062476,0.8814604407990907
11827197,2011.0,1,202401.0,235345,0.59,-0.83,9.97,-0.03,-0.01,0.0,32.35,9.907707,-17.94171768733324,316.0357601193938,10.021871082786888,0.03162277660168379,-0.25083404849648017,0.6333514979682597
11867196,1987.0,1,202056.0,234470,0.58,-0.81,9.93,-0.03,-0.01,-0.0,32.35,9.947706,-61.84031326345626,109.07048335334399,9.979849698267003,0.03162277660168379,-0.8994002339921886,0.21125750627604362
11907197,1985.0,1,201775.0,233961,0.58,-0.83,9.96,-0.03,-0.01,0.0,32.35,9.987707,-48.59902110661713,-117.67697839764813,10.011338571839433,0.03162277660168379,-0.7037708697155229,-0.25118113431168154
11947197,1984.0,1,201695.0,233803,0.57,-0.82,9.96,-0.03,-0.01,-0.0,32.35,10.027707,-58.67221467796041,-291.0639411415643,10.009940059760599,0.03162277660168379,-0.8525941440044948,-0.6047940512006192
11987217,1965.0,1,201718.0,233815,0.55,-0.83,9.95,-0.03,-0.01,-0.0,32.35,10.067727,-70.91530361119094,-369.58447486500984,9.999694995348607,0.03162277660168379,-1.033475864339734,-0.7649322445585165
12027197,1979.0,1,201670.0,233959,0.57,-0.83,9.96,-0.03,-0.01,-0.0,32.35,10.107707,-57.817952661014594,-359.3596420149431,10.010764206592823,0.03162277660168379,-0.8399731147785446,-0.7440792755025094
12067197,1986.0,1,201718.0,234191,0.56,-0.83,9.97,-0.03,-0.01,0.0,32.35,10.147707,-55.66651381989993,-300.14144513739,10.020149699480543,0.03162277660168379,-0.8081873488742706,-0.6233071078643766
12107196,1995.0,1,201844.0,234374,0.58,-0.84,9.96,-0.03,-0.01,0.0,32.35,10.187706,-31.90690359014139,-236.5399261909253,10.01217259140093,0.03162277660168379,-0.45715835641236086,-0.49359540245522493
12147197,1990.0,1,201899.0,234519,0.56,-0.82,9.95,-0.03,-0.01,0.0,32.35,10.227707,-60.84659028982151,-194.59824666964556,9.999424983467799,0.03162277660168379,-0.8847187821144824,-0.40805771611461134
12187883,1954.0,1,201872.0,234631,0.57,-0.82,9.99,-0.03,-0.01,-0.0,32.41,10.268393,-64.54398920934791,-174.86235410332716,10.03979083447459,0.03162277660168379,-0.9393448557284979,-0.3678074779920947
12226197,2064.0,1,201905.0,234792,0.56,-0.84,9.96,-0.03,-0.01,0.0,32.41,10.306707,10.206638027315782,-160.75801197441146,10.011033912638595,0.03162277660168379,0.16503510299309374,-0.3390424688929292
12266196,2033.0,1,201981.0,234955,0.58,-0.84,9.97,-0.03,-0.01,-0.0,32.41,10.346706,11.417150548799222,-132.713279888152,10.02212053409856,0.03162277660168379,0.18291944480972194,-0.2818468218878088
12306196,2069.0,1,202082.0,235165,0.58,-0.83,9.96,-0.03,-0.01,-0.0,32.41,10.386706,24.67379511601645,-78.71028502747343,10.011338571839433,0.03162277660168379,0.3787756285120757,-0.17171076418647568
12346196,2127.0,1,202096.0,235281,0.58,-0.8,9.98,-0.03,-0.01,-0.0,32.41,10.426706,91.40479120070322,0.6369897901727759,10.028798532227079,0.03162277660168379,1.3646720340115395,-0.009886479064781684
12386196,2122.0,1,202170.0,235474,0.57,-0.81,9.95,-0.03,-0.01,-0.0,32.41,10.466706,92.94395904512602,89.48147524730282,9.999174965965942,0.03162277660168379,1.3874119919667756,0.17130683071360825
12426194,2125.0,1,202244.0,235755,0.57,-0.84,9.95,-0.03,-0.01,-0.0,32.41,10.506704,75.34537953891984,157.5077944855972,10.001649863897455,0.03162277660168379,1.127407237129215,0.3100426663865552
12466197,2106.0,1,202321.0,236119,0.58,-0.84,9.97,-0.03,-0.01,-0.0,32.41,10.546707,86.60994027492207,169.88886507061105,10.02212053409856,0.03162277660168379,1.2938319960982105,0.33529316050958113
12506197,2127.0,1,202288.0,235790,0.55,-0.83,9.96,-0.03,-0.01,-0.0,32.41,10.586707,72.6909839645673,106.81084300896525,10.00964534836275,0.03162277660168379,1.088190692958246,0.2066490974277046
12546197,2041.0,1,202071.0,234877,0.57,-0.83,9.96,-0.03,-0.01,-0.0,32.41,10.626707,20.533988772373057,-19.510704049277283,10.010764206592823,0.03162277660168379,0.31761334362002547,-0.05097656262357682
12586196,2033.0,1,201901.0,234499,0.57,-0.85,9.97,-0.03,-0.01,-0.0,32.41,10.666706,-15.877933815347594,-165.64591534245767,10.022389934541561,0.03162277660168379,-0.22034331374802454,-0.3490110717226523
12626196,2000.0,1,201891.0,234376,0.58,-0.84,9.95,-0.03,-0.01,-0.0,32.41,10.706706,-28.346486771052724,-277.9802103673144,10.00222475252381,0.03162277660168379,-0.40455608235721807,-0.5781105213108587
12666196,2023.0,1,201787.0,234413,0.57,-0.84,9.97,-0.03,-0.01,0.0,32.41,10.746706,-17.364870749232516,-319.9657520862771,10.021546786798933,0.03162277660168379,-0.24231160231457188,-0.6637376621261247
12706196,2063.0,1,201767.0,234585,0.57,-0.84,10.0,-0.03,-0.01,0.0,32.41,10.786706,28.699925187616085,-287.67162298932885,10.051392938294672,0.03162277660168379,0.43825843857871954,-0.5978756099415785
12746197,2091.0,1,201935.0,234867,0.57,-0.81,9.96,-0.03,-0.01,0.0,32.41,10.826707,54.117034631330455,-205.30838937483608,10.009125835955906,0.03162277660168379,0.8137756391153808,-0.4299004472077949
12786197,2044.0,1,202028.0,234976,0.57,-0.82,9.97,-0.03,-0.01,-0.0,32.41,10.866707,11.527798347047163,-106.13858507464613,10.019890218959487,0.03162277660168379,0.18455417638829202,-0.22764923286656127
12826193,2003.0,1,202059.0,235077,0.59,-0.83,9.93,-0.03,-0.01,-0.0,32.41,10.906703,-37.49137673114812,-13.334718888968302,9.982078941783621,0.03162277660168379,-0.5396644228487087,-0.038380989734828695
12866197,2001.0,1,202100.0,235244,0.56,-0.83,9.98,-0.03,-0.01,0.0,32.41,10.946707,-24.098593763171507,66.26765419473313,10.030099700401786,0.03162277660168379,-0.3417969045667124,0.12396355389145844
12906196,2035.0,1,202197.0,235377,0.57,-0.83,9.96,-0.03,-0.01,-0.0,32.41,10.986706,-10.002956708763401,135.0085238777203,10.010764206592823,0.03162277660168379,-0.1335452865700344,0.2641566748355321
12946197,2013.0,1,202259.0,235475,0.57,-0.82,9.98,-0.03,-0.01,-0.0,32.41,11.026707,-7.9924979002502425,195.26135392898735,10.029840477295739,0.03162277660168379,-0.10384238643345597,0.3870389183910071
12986196,2033.0,1,202304.0,235622,0.59,-0.83,9.97,-0.03,-0.01,0.0,32.41,11.066706,-8.56570486418008,248.4189270389843,10.021871082786888,0.03162277660168379,-0.11231105494588914,0.495450786184813
13027196,2006.0,1,202340.0,235801,0.56,-0.84,9.96,-0.03,-0.01,-0.0,32.41,11.107706,-20.31169423557432,299.65386356847785,10.011033912638595,0.03162277660168379,-0.28584853197674537,0.5999415452713089
13067196,2061.0,1,202378.0,235902,0.57,-0.81,9.97,-0.03,-0.01,-0.0,32.41,11.147706,31.38311012241774,357.40630643472093,10.019076803777882,0.03162277660168379,0.47790032222682394,0.7177243903953464
13107196,2093.0,1,202429.0,235969,0.54,-0.83,9.94,-0.03,-0.01,-0.0,32.41,11.187706,57.57098920778288,421.8059487009318,9.989199167100434,0.03162277660168379,0.8648050197852175,0.8490638232337476
13147194,2036.0,1,202358.0,236049,0.59,-0.84,9.97,-0.03,-0.01,-0.0,32.41,11.227704,15.994551365072033,470.7663872093266,10.0227042259063,0.03162277660168379,0.250546833520757,0.9489158720794584
13187196,1998.0,1,202404.0,236186,0.57,-0.81,9.95,-0.03,-0.01,-0.0,32.41,11.267706,-38.55054437696339,461.5288412794935,9.999174965965942,0.03162277660168379,-0.5553127667383368,0.9300764189311367
13227880,1943.0,1,202443.0,235765,0.55,-0.83,9.98,-0.03,-0.01,0.0,32.31,11.30839,-78.14829809916479,356.28954286008565,10.029546350658139,0.03162277660168379,-1.1403374981394316,0.7154468141643968
13266197,2062.0,1,202121.0,234591,0.57,-0.84,9.95,-0.03,-0.01,-0.0,32.31,11.346707,32.76894876732052,156.48520769326564,10.001649863897455,0.03162277660168379,0.49837496547773497,0.30795715838361193
13306196,2099.0,1,201722.0,233903,0.57,-0.84,9.95,-0.03,-0.01,-0.0,32.31,11.386706,73.93050149154665,-85.1404468387545,10.001649863897455,0.03162277660168379,1.1065035602328734,-0.1848247159979116
13346197,1981.0,1,201579.0,233580,0.58,-0.83,9.96,-0.03,-0.01,-0.0,32.31,11.426707,-46.687764444304804,-290.52396285553874,10.011338571839433,0.03162277660168379,-0.6755336009211339,-0.6036927959865221
13386196,2014.0,1,201494.0,233410,0.57,-0.83,9.92,-0.03,-0.01,-0.0,32.31,11.466706,-3.8396527848200805,-401.65018618734973,9.970967856732866,0.03162277660168379,-0.0424874642515264,-0.8303284515937487
13426210,2081.0,1,201488.0,233413,0.57,-0.83,9.96,-0.03,-0.01,-0.0,32.31,11.50672,41.10754080497756,-409.3087709864238,10.010764206592823,0.03162277660168379,0.6215709073818458,-0.8459477027022746
13466196,1962.0,1,201499.0,233589,0.57,-0.83,9.95,-0.03,-0.01,0.0,32.31,11.546706,-39.73345073159531,-346.5776633775482,10.000814966791456,0.03162277660168379,-0.5727892498046777,-0.7180111520516308
13506196,2029.0,1,201566.0,233785,0.56,-0.82,9.96,-0.03,-0.01,-0.0,32.31,11.586706,-25.6480244486097,-259.09723875381314,10.009375604901637,0.03162277660168379,-0.36468848768358164,-0.5395997672950383
13546196,2019.0,1,201652.0,233917,0.54,-0.82,9.95,-0.03,-0.01,-0.0,32.31,11.626706,26.004122500585538,-178.2699305607441,9.998324859695247,0.03162277660168379,0.39843013786361736,-0.3747570377026996
13586197,2061.0,1,201666.0,234068,0.57,-0.83,9.95,-0.03,-0.01,-0.0,32.31,11.666707,4.067272238371857,-113.85793604960585,10.000814966791456,0.03162277660168379,0.07433094722588841,-0.24339241315847598
13626202,1984.0,1,201672.0,234214,0.56,-0.84,9.96,-0.03,-0.01,-0.0,32.31,11.706712,-17.21227816115278,-63.07564275967578,10.011033912638595,0.03162277660168379,-0.24005717044751643,-0.1398247943918696
13666197,2038.0,1,201771.0,234384,0.58,-0.84,9.94,-0.03,-0.01,-0.0,32.31,11.746707,-7.3782196966798965,-21.15735545872393,9.99227701777728,0.03162277660168379,-0.09476692362891308,-0.05433481516332344
13706197,2000.0,1,201793.0,234632,0.57,-0.83,9.95,-0.03,-0.01,-0.0,32.31,11.786707,-19.737147960422718,17.965459942484664,10.000814966791456,0.03162277660168379,-0.2773600762260443,0.025453957025745
13746197,2046.0,1,201873.0,234820,0.57,-0.83,9.96,-0.03,-0.01,0.0,32.31,11.826707,12.941051562731065,67.22183668162185,10.010764206592823,0.03162277660168379,0.20543384771277048,0.12590955517721486
13786196,2065.0,1,201869.0,235024,0.57,-0.82,9.95,-0.03,-0.01,-0.0,32.31,11.866706,32.36392947769558,143.79732586171417,9.999989999994998,0.03162277660168379,0.4923911335970835,0.28208094005326634
13826197,1984.0,1,201949.0,235255,0.57,-0.83,9.95,-0.03,-0.01,-0.0,32.31,11.906707,-50.25307246664923,251.1758735957126,10.000814966791456,0.03162277660168379,-0.7282081385418062,0.5010734229632856
13866194,1982.0,1,202026.0,235425,0.56,-0.83,9.98,-0.03,-0.01,0.0,32.31,11.946704,-49.74754727521683,359.13166626873686,10.030099700401786,0.03162277660168379,-0.720739413386106,0.7212431643212182
13906197,2045.0,1,202129.0,235635,0.56,-0.83,9.94,-0.03,-0.01,-0.0,32.31,11.986707,-3.0895187896155085,406.57342905610466,9.990300295786907,0.03162277660168379,-0.03140484218821135,0.8179979598151073
13946197,2039.0,1,202159.0,235415,0.57,-0.82,9.97,-0.03,-0.01,-0.0,32.31,12.026707,12.735170874703552,337.17552176342224,10.019890218959487,0.03162277660168379,0.2023921273399697,0.6764648477783168
13986197,2095.0,1,201915.0,234301,0.57,-0.85,9.94,-0.03,-0.01,-0.0,32.31,12.066707,34.51086361752001,145.31166436768436,9.992547222805603,0.03162277660168379,0.5241103461892467,0.2851693478999638
14026199,2005.0,1,201551.0,233465,0.56,-0.8,9.97,-0.03,-0.01,-0.0,32.31,12.106709,-24.03144111715892,-107.73176070105895,10.017709319001026,0.03162277660168379,-0.3408047786251249,-0.23089842456734827
14066196,2011.0,1,201333.0,233148,0.58,-0.82,9.93,-0.03,-0.01,-0.0,32.31,12.146706,-53.300220088768675,-326.8225635054931,9.980666310422366,0.03162277660168379,-0.7732272760331944,-0.6777217417139738
14106194,2006.0,1,201277.0,233085,0.57,-0.85,9.93,-0.03,-0.01,-0.0,32.31,12.186704,-32.70203734112122,-441.8963992940821,9.98259986175946,0.03162277660168379,-0.4689058134110165,-0.9124083299489901
14146197,2030.0,1,201333.0,233214,0.59,-0.81,9.98,-0.03,-0.01,-0.0,32.31,12.226707,-37.08213988916399,-445.9096886570021,10.03018444496411,0.03162277660168379,-0.533618280048771,-0.9205932069171479
14186194,2039.0,1,201378.0,233495,0.56,-0.81,9.96,-0.03,-0.01,0.0,32.31,12.266704,-6.003370240539004,-384.711525060637,10.008561335177,0.03162277660168379,-0.07445463673914424,-0.7957830089928728
14226196,2054.0,1,201506.0,233780,0.56,-0.84,9.97,-0.03,-0.01,-0.0,32.31,12.306706,-22.023475838188524,-313.90470047379796,10.020982985715523,0.03162277660168379,-0.31113871836742524,-0.6513764897162438
14266883,2014.0,1,201445.0,233966,0.58,-0.82,9.95,-0.03,-0.01,0.0,32.21,12.347393,-32.12118051687866,-261.8251400276029,10.00056498403965,0.03162277660168379,-0.46032412440994397,-0.5451631678595579
14305196,2121.0,1,201494.0,234108,0.57,-0.82,9.97,-0.03,-0.01,-0.0,32.21,12.385706,34.67770398846305,-224.54223036498308,10.019890218959487,0.03162277660168379,0.5265752775053654,-0.46912677949870146
14345194,2090.0,1,201603.0,234404,0.57,-0.84,9.94,-0.03,-0.01,-0.0,32.21,12.425704,39.96268968425293,-185.64341710086254,9.991701556792016,0.03162277660168379,0.6046566595663025,-0.3897948470156382
14385196,2128.0,1,201703.0,234683,0.55,-0.83,9.97,-0.03,-0.01,-0.0,32.21,12.465706,38.68753150469639,-134.10636373263688,10.019595800230666,0.03162277660168379,0.5858172305238739,-0.28468793770138195
14425196,2126.0,1,201767.0,234972,0.57,-0.8,9.94,-0.03,-0.01,-0.0,32.21,12.505706,63.769425327532474,-64.16182434560808,9.988418293203383,0.03162277660168379,0.9563818918346594,-0.1420400003842593
14465196,2079.0,1,201909.0,235379,0.58,-0.83,9.95,-0.03,-0.01,-0.0,32.21,12.545706,-3.817952103017944,33.796635634792295,10.001389903408425,0.03162277660168379,-0.042166854258556076,0.057740745638602084
14505196,2034.0,1,201992.0,235665,0.55,-0.83,9.97,-0.03,-0.01,-0.0,32.21,12.585706,-46.8056597371968,171.0924781354153,10.019595800230666,0.03162277660168379,-0.6772754083615625,0.3377478613701047
14545196,2080.0,1,202173.0,236015,0.58,-0.83,9.95,-0.03,-0.01,0.0,32.21,12.625706,8.81900920106261,341.4636909265625,10.001389903408425,0.03162277660168379,0.14453401126303367,0.6852103265726527
14585196,2108.0,1,202332.0,236410,0.56,-0.82,9.95,-0.03,-0.01,0.0,32.21,12.665706,9.564286052794019,502.52458823160003,9.999424983467799,0.03162277660168379,0.1555448729665137,1.0136849292271843
14625196,2064.0,1,202487.0,236755,0.58,-0.81,9.97,-0.03,-0.01,-0.0,32.21,12.705706,0.5488700171014169,583.6884291308177,10.019650692514187,0.03162277660168379,0.022349404815676117,1.1792139982649257
14665194,2123.0,1,202545.0,236597,0.57,-0.84,9.96,-0.03,-0.01,0.0,32.21,12.745704,18.229409121438465,526.1290383577772,10.01159827400201,0.03162277660168379,0.28356504631662266,1.061824871980578
14705196,2053.0,1,202288.0,235389,0.57,-0.85,9.97,-0.03,-0.01,-0.0,32.21,12.785706,-15.155054854726032,328.1620782914079,10.022389934541561,0.03162277660168379,-0.209663362740197,0.658082438934464
14745197,2096.0,1,201890.0,234554,0.57,-0.84,9.96,-0.03,-0.01,-0.0,32.21,12.825707,0.5528233833081151,57.331189262832,10.01159827400201,0.03162277660168379,0.022407812598587984,0.10573813843209375
14785196,2125.0,1,201748.0,234189,0.57,-0.83,9.95,-0.03,-0.01,-0.0,32.21,12.865706,42.08285216739843,-184.9974347285256,10.000814966791456,0.03162277660168379,0.6359803426199057,-0.38847740245506723
14825194,2096.0,1,201671.0,234116,0.57,-0.82,9.94,-0.03,-0.01,-0.0,32.21,12.905704,16.829538630018146,-320.79397042360205,9.9900400399598,0.03162277660168379,0.2628830939012178,-0.6654267666438325
14865196,2096.0,1,201666.0,234208,0.59,-0.83,9.96,-0.03,-0.01,-0.0,32.21,12.945706,1.3357366983159489,-332.2159040014633,10.011922892232041,0.03162277660168379,0.03397472255605855,-0.688721155016876
14905194,2091.0,1,201733.0,234596,0.58,-0.82,9.95,-0.03,-0.01,-0.0,32.21,12.985704,21.349404426525815,-256.7980088103943,10.00056498403965,0.03162277660168379,0.3296604493068186,-0.5349106176956446
14945197,2110.0,1,201863.0,234836,0.59,-0.83,9.96,-0.03,-0.01,-0.0,32.21,13.025707,17.400137170088215,-153.34073968341215,10.011922892232041,0.03162277660168379,0.2713132250643193,-0.32391536101427304
14985197,2077.0,1,201921.0,234995,0.58,-0.84,9.97,-0.03,-0.01,-0.0,32.21,13.065707,4.784869639954208,-67.3390745126908,10.02212053409856,0.03162277660168379,0.0849328674777299,-0.14851982263552832
15025203,2112.0,1,202007.0,235102,0.56,-0.83,9.95,-0.03,-0.01,0.0,32.21,13.105713,33.691596829932685,-16.389399213178642,10.000249996875077,0.03162277660168379,0.5120063431259267,-0.04461083771482144
15065197,2109.0,1,201932.0,235342,0.58,-0.83,9.97,-0.03,-0.01,0.0,32.21,13.145707,30.026018108432527,4.2742802454855156,10.021287342452565,0.03162277660168379,0.45785038715883725,-0.002468430630684177
15105196,2071.0,1,202035.0,235615,0.57,-0.84,9.97,-0.03,-0.01,-0.0,32.21,13.185706,6.4485160698384405,10.37517952136349,10.021546786798933,0.03162277660168379,0.1095118956876994,0.009974008837934497
15145194,2101.0,1,202095.0,235889,0.56,-0.83,9.94,-0.03,-0.01,-0.0,32.21,13.225704,24.892694971265662,23.356199130352024,9.990300295786907,0.03162277660168379,0.38200969653318945,0.03644806510770439
15185196,2093.0,1,202147.0,236019,0.57,-0.83,9.98,-0.03,-0.01,-0.0,32.21,13.265706,30.178162156510272,68.22048211616593,10.030662989055111,0.03162277660168379,0.4600981922107448,0.12794623613325948
15225194,2090.0,1,202117.0,236225,0.58,-0.83,9.95,-0.03,-0.01,-0.0,32.21,13.305704,31.241358193419362,161.63497005123887,10.001389903408425,0.03162277660168379,0.4758060523152111,0.3184598078323904
15265197,2086.0,1,202188.0,236353,0.57,-0.83,9.98,-0.03,-0.01,-0.0,32.21,13.345707,15.735734344725573,289.01217610434225,10.030662989055111,0.03162277660168379,0.2467230217239448,0.578238424775616
15305880,2027.0,1,202339.0,236489,0.56,-0.83,9.94,-0.03,-0.01,-0.0,32.25,13.38639,-10.755266814002718,392.38982701781487,9.990300295786907,0.03162277660168379,-0.1446600588961524,0.7890713046077075
15346197,2025.0,1,202461.0,236647,0.56,-0.84,9.99,-0.03,-0.01,-0.0,32.25,13.426707,-47.02827598595293,394.40681113575874,10.040881435411933,0.03162277660168379,-0.6805643830859307,0.7931848297884803
15386194,1934.0,1,202361.0,235833,0.58,-0.84,9.95,-0.03,-0.01,0.0,32.25,13.466704,-94.39895528285908,252.6639452907799,10.00222475252381,0.03162277660168379,-1.380427792671762,0.5041082611328069
15426196,1990.0,1,201880.0,234573,0.58,-0.82,9.95,-0.03,-0.01,-0.0,32.25,13.506706,-67.97243533411739,1.6220329529460225,10.00056498403965,0.03162277660168379,-0.9899973696902137,-0.007877539173699969
15466194,1991.0,1,201566.0,233958,0.56,-0.83,9.95,-0.03,-0.01,-0.0,32.25,13.546704,-42.53213037125984,-259.2532777019686,10.000249996875077,0.03162277660168379,-0.6141374741499002,-0.5399179999160632
15506197,2009.0,1,201497.0,233833,0.58,-0.83,9.98,-0.03,-0.01,0.0,32.25,13.586707,-25.13491331929516,-426.5049382387067,10.0312362149438,0.03162277660168379,-0.35710768644136753,-0.8810183145012183
15546197,2069.0,1,201497.0,233807,0.57,-0.84,9.97,-0.03,-0.01,-0.0,32.25,13.626707,27.51457928734912,-454.2106409789333,10.021546786798933,0.03162277660168379,0.4207459132020019,-0.9375225303049127
15586197,2022.0,1,201509.0,234059,0.58,-0.84,9.98,-0.03,-0.01,-0.0,32.25,13.666707,7.321626692400412,-370.10074128594,10.032068580307852,0.03162277660168379,0.12241139779156174,-0.7659851407630976
15626194,2020.0,1,201663.0,234334,0.56,-0.83,9.97,-0.03,-0.01,0.0,32.25,13.706704,-20.884686816663955,-242.53860554296196,10.020149699480543,0.03162277660168379,-0.2943140331563953,-0.5058293701629818
15666196,2007.0,1,201704.0,234512,0.59,-0.83,9.92,-0.03,-0.01,-0.0,32.25,13.746706,0.7146869426380856,-131.87439010267232,9.972131166405704,0.03162277660168379,0.024799215555052875,-0.2801359535543579
15706196,2028.0,1,201701.0,234574,0.57,-0.84,9.97,-0.03,-0.01,-0.0,32.25,13.786706,-3.1573615438715366,-62.096074636524406,10.021546786798933,0.03162277660168379,-0.032407163920009245,-0.13782702053484333
15746197,1988.0,1,201754.0,234663,0.58,-0.82,9.96,-0.03,-0.01,0.0,32.25,13.826707,-17.637845259110502,-23.43306775533169,10.01051447229362,0.03162277660168379,-0.24634457954962086,-0.05897600185042186
15786197,1995.0,1,201769.0,234832,0.57,-0.83,9.95,-0.03,-0.01,-0.0,32.25,13.866707,-23.079525079001726,8.960408440897313,10.000814966791456,0.03162277660168379,-0.3267409903495019,0.00708866313156412
15826197,1982.0,1,201834.0,234932,0.57,-0.83,9.96,-0.03,-0.01,0.0,32.25,13.906707,-25.134728894322553,59.8301797698765,10.010764206592823,0.03162277660168379,-0.3571049617118079,0.11083468841768243
15866197,1989.0,1,201942.0,234973,0.57,-0.83,9.96,-0.03,-0.01,-0.0,32.25,13.946707,-17.62316572862661,146.95254861778056,10.010764206592823,0.03162277660168379,-0.24612770137924075,0.2885158386439687
15906197,2007.0,1,201945.0,234967,0.59,-0.81,9.96,-0.03,-0.01,-0.0,32.25,13.986707,-0.3457990541860322,273.2691038625434,10.010284711235741,0.03162277660168379,0.009131394097321952,0.5461313181736169
15946194,2032.0,1,201998.0,235127,0.58,-0.84,9.96,-0.03,-0.01,-0.0,32.25,14.026704,32.722694076537934,413.2670622453228,10.01217259140093,0.03162277660168379,0.49769158989433787,0.8316492466198707
15986197,2061.0,1,202100.0,235281,0.57,-0.83,9.94,-0.03,-0.01,-0.0,32.25,14.066707,56.00617416204734,507.17000117626515,9.99086582834541,0.03162277660168379,0.8416861452084873,1.023158986535304
16026199,2035.0,1,202143.0,235332,0.57,-0.84,9.97,-0.03,-0.01,-0.0,32.25,14.106709,38.39734892491698,483.1367940399381,10.021546786798933,0.03162277660168379,0.5815300179970295,0.9741446180777146
16066197,2013.0,1,202073.0,234332,0.57,-0.83,9.97,-0.03,-0.01,-0.0,32.25,14.146707,12.535345897632238,305.34918263477476,10.020713547447608,0.03162277660168379,0.19943987519055467,0.6115568268113687
16106197,1998.0,1,201547.0,233031,0.59,-0.81,9.95,-0.03,-0.01,-0.0,32.25,14.186707,0.28713770727904075,12.674361819571345,10.000334994388936,0.03162277660168379,0.018482521978658687,0.014663061267611585
16146197,1993.0,1,201160.0,232219,0.57,-0.84,9.97,-0.03,-0.01,-0.0,32.25,14.226707,-1.9739704891493062,-291.3422332491875,10.021546786798933,0.03162277660168379,-0.014923519802510492,-0.6053616122350042
16186196,2013.0,1,200995.0,232069,0.6,-0.84,9.97,-0.03,-0.01,-0.0,32.25,14.266706,11.362142177731691,-497.41258556148824,10.023297860484842,0.03162277660168379,0.18210674069184793,-1.0256304560529086
16226197,1983.0,1,201026.0,232031,0.57,-0.84,9.93,-0.03,-0.01,-0.0,32.25,14.306707,-6.103643471288279,-553.5916368006052,9.981753352993652,0.03162277660168379,-0.07593609248780517,-1.1402044578252206
16266194,1982.0,1,201026.0,232275,0.58,-0.84,9.95,-0.03,-0.01,0.0,32.25,14.346704,-25.97325556905011,-484.3301322866596,10.00222475252381,0.03162277660168379,-0.3694935140043613,-0.9989495315510591
16306883,1995.0,1,201181.0,232593,0.56,-0.82,9.96,-0.03,-0.01,-0.0,32.11,14.387393,11.232350095261815,-357.7443124091601,10.009375604901637,0.03162277660168379,0.18018916782350727,-0.7407849020121472
16345196,2018.0,1,201204.0,232849,0.58,-0.84,9.96,-0.03,-0.01,-0.0,32.11,14.425706,3.506024444411326,-234.85802308584738,10.01217259140093,0.03162277660168379,0.06603896576111348,-0.49016525607340283
16385197,1951.0,1,201303.0,232983,0.58,-0.83,9.93,-0.03,-0.01,-0.0,32.11,14.465707,-31.537683249279446,-140.34659919119082,9.981492874314943,0.03162277660168379,-0.4517034249974136,-0.2974145454442727
16425194,2032.0,1,201334.0,233245,0.58,-0.84,9.96,-0.03,-0.01,-0.0,32.11,14.505704,15.030420706057765,-67.34278292364488,10.01217259140093,0.03162277660168379,0.23630258411756075,-0.14852738573020247
16465196,2032.0,1,201451.0,233408,0.56,-0.83,9.95,-0.03,-0.01,0.0,32.11,14.545706,43.41750063651583,0.7442358147385134,10.000249996875077,0.03162277660168379,0.6556986924949522,-0.009667756855387864
16505197,2019.0,1,201496.0,233621,0.56,-0.85,9.96,-0.03,-0.01,-0.0,32.11,14.585707,4.544387418080924,75.56303146159718,10.011877945720274,0.03162277660168379,0.08137993747454952,0.14292095078509687
16545196,1984.0,1,201653.0,233888,0.57,-0.83,9.96,-0.03,-0.01,-0.0,32.11,14.625706,-15.92758864826455,164.2453018316795,10.010764206592823,0.03162277660168379,-0.22107692367685547,0.3237834320560456
16585194,2020.0,1,201694.0,234149,0.56,-0.82,9.95,-0.03,-0.01,-0.0,32.11,14.665704,9.19427533232779,272.9308625874059,9.999424983467799,0.03162277660168379,0.1500782643332337,0.5454414941982685
16625197,2047.0,1,201799.0,234414,0.57,-0.83,9.96,-0.03,-0.01,-0.0,32.11,14.705707,35.06065956637412,398.6527235939381,10.010764206592823,0.03162277660168379,0.5322331359202068,0.8018441284198853
16665196,2018.0,1,201832.0,234718,0.59,-0.82,9.97,-0.03,-0.01,-0.0,32.11,14.745706,8.31997446422384,512.474456040323,10.021047849401779,0.03162277660168379,0.13716117731575778,1.0339771226125567
16705251,2013.0,1,201941.0,234962,0.57,-0.83,9.95,-0.03,-0.01,-0.0,32.11,14.785761,-9.257753055508381,555.96765689711,10.000814966791456,0.03162277660168379,-0.12253550631474179,1.1226790490804652
16745193,2033.0,1,201974.0,234873,0.57,-0.83,9.97,-0.03,-0.01,-0.0,32.11,14.825703,21.208065205526957,469.2554472481838,10.020713547447608,0.03162277660168379,0.3275722768215461,0.9458343953729722
16785197,2046.0,1,201761.0,233618,0.56,-0.83,9.98,-0.03,-0.01,-0.0,32.11,14.865707,15.380119074589171,238.63192091573217,10.030099700401786,0.03162277660168379,0.2414690942069142,0.47549074000784336
16825196,2005.0,1,201267.0,232359,0.58,-0.84,9.97,-0.03,-0.01,0.0,32.11,14.905706,-12.235068512086325,-75.98564685227917,10.02212053409856,0.03162277660168379,-0.16652293013429692,-0.166154018527228
16865196,2028.0,1,200976.0,231892,0.58,-0.84,9.96,-0.03,-0.01,-0.0,32.11,14.945706,-8.218967756960987,-364.5940459285603,10.01217259140093,0.03162277660168379,-0.10718829509337988,-0.7547545466231116
16905234,2035.0,1,200926.0,231886,0.56,-0.86,9.96,-0.03,-0.01,0.0,32.11,14.985744,8.461557809830005,-529.3957793673934,10.01273189494256,0.03162277660168379,0.13925295654432734,-1.0908583732743098
16945196,2053.0,1,200940.0,232089,0.57,-0.83,9.97,-0.03,-0.01,-0.0,32.11,15.025706,13.948542307527996,-538.8612868824001,10.020713547447608,0.03162277660168379,0.2203187072555341,-1.1101627411993609
16985196,2021.0,1,200989.0,232471,0.58,-0.83,9.96,-0.03,-0.01,-0.0,32.11,15.065706,-16.73378513781666,-434.7461890314078,10.011338571839433,0.03162277660168379,-0.23298782367551601,-0.8978258799923127
17025204,1997.0,1,201217.0,232831,0.57,-0.82,9.96,-0.03,-0.01,0.0,32.11,15.105714,-45.47865014024139,-293.10545058809225,10.009940059760599,0.03162277660168379,-0.6576699166341304,-0.6089575944037451
17065196,1995.0,1,201321.0,233043,0.58,-0.84,9.95,-0.03,-0.01,-0.0,32.11,15.145706,-51.11187077165036,-173.5219793235895,10.00222475252381,0.03162277660168379,-0.7408961877487316,-0.3650738593388431
17105197,2005.0,1,201371.0,233230,0.56,-0.82,9.97,-0.03,-0.01,-0.0,32.11,15.185707,-45.29433729945795,-93.02836410619702,10.01932632465876,0.03162277660168379,-0.6549468437313196,-0.2009116777220095
17145193,2039.0,1,201405.0,233401,0.55,-0.82,9.96,-0.03,-0.01,-0.0,32.11,15.225703,-10.660191767182244,-36.486140400586194,10.008821109401447,0.03162277660168379,-0.14325540210376703,-0.08559700621779667
17185197,2055.0,1,201508.0,233647,0.6,-0.82,9.95,-0.03,-0.01,-0.0,32.11,15.265707,-5.855244646357393,14.862473073952582,10.001744847775312,0.03162277660168379,-0.07226620108802956,0.019125590577165518
17225194,2047.0,1,201603.0,233916,0.57,-0.84,9.96,-0.03,-0.01,-0.0,32.11,15.305704,-5.670665128442689,66.21302897080949,10.01159827400201,0.03162277660168379,-0.0695391882466509,0.12385214883272933
17265197,2077.0,1,201702.0,234175,0.56,-0.83,9.95,-0.03,-0.01,-0.0,32.11,15.345707,9.058637816645325,116.26425298192248,10.000249996875077,0.03162277660168379,0.14807432992481406,0.225928793099066
17305196,2001.0,1,201783.0,234380,0.57,-0.83,9.95,-0.03,-0.01,-0.0,32.11,15.385706,-59.06021533443165,173.20223831791296,10.000814966791456,0.03162277660168379,-0.8583265393678275,0.3420505980941513
17345883,1991.0,1,201739.0,234661,0.57,-0.84,9.96,-0.03,-0.01,-0.0,32.11,15.426393,-78.18290008163646,253.5968689315948,10.01159827400201,0.03162277660168379,-1.1408487143978954,0.5060109062027851
17384194,2086.0,1,201880.0,235009,0.57,-0.82,9.99,-0.03,-0.01,-0.0,32.11,15.464704,15.886792962470022,357.9051923884553,10.03979083447459,0.03162277660168379,0.24895479042203184,0.7187418401188039
17424196,2107.0,1,201990.0,235278,0.57,-0.82,9.96,-0.03,-0.01,-0.0,32.11,15.504706,38.37322045452204,447.16413692966415,10.009940059760599,0.03162277660168379,0.5811735393944565,0.9007804157887747
17464194,2112.0,1,202076.0,235523,0.57,-0.84,9.95,-0.03,-0.01,-0.0,32.11,15.544704,34.467455952992765,453.0613357015566,10.001649863897455,0.03162277660168379,0.5234690331122738,0.9128074195853788
17504196,2129.0,1,202058.0,234833,0.55,-0.82,9.96,-0.03,-0.01,-0.0,32.11,15.584706,58.405392545620664,324.6762970933321,10.008821109401447,0.03162277660168379,0.8771326531157172,0.650973385072619
17544196,2082.0,1,201677.0,233419,0.55,-0.85,9.94,-0.03,-0.01,0.0,32.11,15.624706,3.269469358048369,75.98236020577198,9.991426324604511,0.03162277660168379,0.06254405600355673,0.1437761480733845
17584196,2061.0,1,201305.0,232575,0.58,-0.84,9.97,-0.03,-0.01,-0.0,32.11,15.664706,-16.61915542877602,-209.74302950005043,10.02212053409856,0.03162277660168379,-0.23129426259090105,-0.43894464525598287
17624196,2103.0,1,201174.0,232339,0.58,-0.85,9.96,-0.03,-0.01,0.0,32.11,15.704706,31.26304304536117,-427.06107778827516,10.013016528499291,0.03162277660168379,0.4761264284348195,-0.8821525296994547
17664196,2089.0,1,201179.0,232435,0.56,-0.84,9.96,-0.03,-0.01,-0.0,32.11,15.744706,-0.7137716163424294,-510.5720422588444,10.011033912638595,0.03162277660168379,0.003694897601869962,-1.0524684246855245
17704196,2035.0,1,201170.0,232639,0.58,-0.81,9.97,-0.03,-0.01,-0.0,32.11,15.784706,-24.553888312504913,-465.23142024571274,10.019650692514187,0.03162277660168379,-0.34852351267940485,-0.9599987871193931
17744197,2088.0,1,201310.0,233138,0.58,-0.82,9.97,-0.03,-0.01,0.0,32.11,15.824707,-12.050107085484932,-348.2607790453652,10.020464061110143,0.03162277660168379,-0.16379027490147305,-0.7214437713866686
17784197,2035.0,1,201450.0,233406,0.56,-0.85,9.93,-0.03,-0.01,-0.0,32.11,15.864707,-16.493717344864905,-224.35739056284976,9.982033860892278,0.03162277660168379,-0.2294410165239045,-0.4687498091627825
17824196,2124.0,1,201529.0,233616,0.58,-0.84,9.96,-0.03,-0.01,-0.0,32.11,15.904706,24.317348955687045,-129.669891341502,10.01217259140093,0.03162277660168379,0.37350942526558334,-0.2756400028503432
17864196,2096.0,1,201509.0,233798,0.56,-0.86,9.95,-0.03,-0.01,-0.0,32.11,15.944706,42.93221806363544,-64.975818568253,10.002784612296717,0.03162277660168379,0.6485290356289415,-0.14370009562351518
17904197,2115.0,1,201651.0,234086,0.56,-0.82,9.97,-0.03,-0.01,0.0,32.11,15.984707,26.276965097189382,-12.139864102312151,10.01932632465876,0.03162277660168379,0.4024611661869095,-0.035944150887883636
17944196,2103.0,1,201671.0,234394,0.59,-0.84,9.98,-0.03,-0.01,-0.0,32.11,16.024706,43.869804604667436,47.613625434853674,10.032651693346082,0.03162277660168379,0.662381117193482,0.08591971589394119
17984196,2132.0,1,201857.0,234709,0.57,-0.82,9.95,-0.03,-0.01,-0.0,32.11,16.064706,56.31682977401679,128.21717220672397,9.999989999994998,0.03162277660168379,0.8462758301998552,0.25030609670673426
18024220,2087.0,1,201901.0,234950,0.58,-0.83,9.95,-0.03,-0.01,0.0,32.11,16.10473,25.489201543349964,240.51399589683996,10.001389903408425,0.03162277660168379,0.3908225978800895,0.47932912562427615
18064196,2057.0,1,202018.0,235215,0.57,-0.82,9.94,-0.03,-0.01,-0.0,32.11,16.144706,-9.348309168236863,385.40721938586347,9.9900400399598,0.03162277660168379,-0.12387339951690099,0.7748306707494855
18104196,2085.0,1,202085.0,235466,0.58,-0.82,9.95,-0.03,-0.01,-0.0,32.11,16.184706,25.776376769217357,535.7123586641924,10.00056498403965,0.03162277660168379,0.3950653791892708,1.0813695124391431
18144197,2112.0,1,202173.0,235674,0.57,-0.82,9.97,-0.03,-0.01,-0.0,32.11,16.224707,54.07340029844131,627.4136165739473,10.019890218959487,0.03162277660168379,0.8131309771969945,1.268389048272099
18184196,2096.0,1,202244.0,235798,0.56,-0.82,9.95,-0.03,-0.01,-0.0,32.11,16.264706,37.82025415614024,584.9794987064581,9.999424983467799,0.03162277660168379,0.5730039103176613,1.181847061739387
18224196,2096.0,1,202200.0,234952,0.58,-0.85,9.96,-0.03,-0.01,-0.0,32.11,16.304706,50.72649175838346,375.9369347613305,10.013016528499291,0.03162277660168379,0.7636831149922867,0.755516560179387
18264194,2090.0,1,201580.0,233592,0.59,-0.83,9.97,-0.03,-0.01,-0.0,32.11,16.344704,28.911083614014476,51.86869356461945,10.021871082786888,0.03162277660168379,0.4413781332602271,0.09459768700039584
18304196,2022.0,1,201187.0,232830,0.57,-0.83,9.93,-0.03,-0.01,-0.0,32.11,16.384706,-8.947038648958184,-268.36584362604947,9.980916791557778,0.03162277660168379,-0.11794495268107538,-0.5585025634020513
18344197,2032.0,1,201054.0,232677,0.58,-0.84,9.98,-0.03,-0.01,-0.0,32.11,16.424707,-29.82052217668291,-469.41530039372464,10.032068580307852,0.03162277660168379,-0.42633376129588496,-0.9685315743580583
18384883,1965.0,1,201130.0,232628,0.6,-0.84,9.98,-0.03,-0.01,-0.0,32.09,16.465393,-58.37821889442606,-508.76907447994637,10.033244739365227,0.03162277660168379,-0.8482505944814116,-1.04879137373969
18425193,2007.0,1,201158.0,232957,0.58,-0.82,9.96,-0.03,-0.01,-0.0,32.09,16.505703,-47.36606079993959,-429.7805823818696,10.01051447229362,0.03162277660168379,-0.6855548800585688,-0.8876988057089958
18465196,1971.0,1,201245.0,233289,0.57,-0.84,9.98,-0.03,-0.01,-0.0,32.09,16.545706,-53.44313654510993,-315.2907615041578,10.031495401982697,0.03162277660168379,-0.7753387508928645,-0.6542032828970871
18505193,1984.0,1,201304.0,233347,0.56,-0.83,9.96,-0.03,-0.01,-0.0,32.09,16.585703,-59.0517334719528,-227.007424598176,10.010199798205829,0.03162277660168379,-0.8582012267212243,-0.474154403892726
18545234,1982.0,1,201286.0,233459,0.58,-0.83,9.96,-0.03,-0.01,-0.0,32.09,16.625744,-44.25168786262311,-177.396956662414,10.011338571839433,0.03162277660168379,-0.6395425429972653,-0.37297665674630476
18585193,1977.0,1,201298.0,233658,0.55,-0.84,9.97,-0.03,-0.01,-0.0,32.09,16.665703,-59.85567393031878,-143.9694637438503,10.020429132527209,0.03162277660168379,-0.8700787956868177,-0.30480317306474475
18625196,2000.0,1,201408.0,233962,0.58,-0.83,9.95,-0.03,-0.01,-0.0,32.09,16.705706,-23.473327853836345,-100.09220743928802,10.001389903408425,0.03162277660168379,-0.33255910731110766,-0.21531798720417053
18665193,2039.0,1,201472.0,234186,0.58,-0.82,9.96,-0.03,-0.01,-0.0,32.09,16.745703,3.208655242837165,-31.91612940805016,10.01051447229362,0.03162277660168379,0.06164557671944312,-0.0762767269320239
18705196,2019.0,1,201592.0,234436,0.57,-0.83,9.96,-0.03,-0.01,0.0,32.09,16.785706,-2.844233523613782,64.87742883208495,10.010764206592823,0.03162277660168379,-0.027780951099186005,0.12112826779013215
18745216,2046.0,1,201610.0,234707,0.58,-0.84,9.97,-0.03,-0.01,0.0,32.09,16.825726,14.204782816099094,190.63349869800132,10.02212053409856,0.03162277660168379,0.22410445317820843,0.3776006690482023
18785197,2006.0,1,201711.0,234901,0.57,-0.8,9.96,-0.03,-0.01,-0.0,32.09,16.865707,-21.801462552841745,333.2492602133493,10.0083215376006,0.03162277660168379,-0.30785865193894363,0.6684574591187626
18825193,2013.0,1,201844.0,235156,0.56,-0.82,9.97,-0.03,-0.01,-0.0,32.09,16.905703,-10.933575545321364,453.22896050826336,10.01932632465876,0.03162277660168379,-0.1472944259458084,0.9131492809105008
18865196,2074.0,1,201877.0,235330,0.57,-0.84,9.96,-0.03,-0.01,-0.0,32.09,16.945706,38.288699509983076,487.16305622182153,10.01159827400201,0.03162277660168379,0.5799248109129479,0.9823559523773886
18905193,2032.0,1,201865.0,235194,0.58,-0.83,9.94,-0.03,-0.01,-0.0,32.09,16.985703,9.742058307044074,382.15229484259316,9.99144133746478,0.03162277660168379,0.15817131400210444,0.7681924359953584
18945196,2003.0,1,201614.0,233880,0.57,-0.83,9.94,-0.03,-0.01,-0.0,32.09,17.025706,-32.28056851161663,140.68109719473853,9.99086582834541,0.03162277660168379,-0.46267895290512345,0.27572556770471385
18985197,1968.0,1,201104.0,232709,0.59,-0.83,9.96,-0.03,-0.01,-0.0,32.09,17.065707,-64.18802487813977,-163.80121234687107,10.011922892232041,0.03162277660168379,-0.9340857711169217,-0.3452489041597625
19025203,2011.0,1,200898.0,232245,0.58,-0.83,9.98,-0.03,-0.01,-0.0,32.09,17.105713,-17.411749539113192,-421.3690309354429,10.0312362149438,0.03162277660168379,-0.24300419845653368,-0.8705439216539277
19065196,2096.0,1,200818.0,232203,0.59,-0.82,9.94,-0.03,-0.01,-0.0,32.09,17.145706,52.00455154426376,-548.3078125263114,9.991201128993449,0.03162277660168379,0.7825654129174326,-1.129428396670489
19105197,2059.0,1,200856.0,232297,0.57,-0.84,9.96,-0.03,-0.01,-0.0,32.09,17.185707,30.251734340330763,-531.2795204364254,10.01159827400201,0.03162277660168379,0.46118516162270023,-1.0947001567829564
19145197,2057.0,1,200884.0,232643,0.57,-0.84,9.94,-0.03,-0.01,-0.0,32.09,17.225707,12.843817556918212,-422.71865629651666,9.991701556792016,0.03162277660168379,0.20399729405033828,-0.8732964063453024
19185196,2044.0,1,201059.0,232965,0.57,-0.82,9.94,-0.03,-0.01,0.0,32.09,17.265706,-0.08196522143609314,-296.5470625840652,9.9900400399598,0.03162277660168379,0.013029325233059958,-0.6159765676727641
19225196,2014.0,1,201155.0,233080,0.56,-0.82,9.96,-0.03,-0.01,-0.0,32.09,17.305706,-18.300322056276354,-200.0606704149748,10.009375604901637,0.03162277660168379,-0.2561321375267824,-0.41919802080246793
19265196,2055.0,1,201160.0,233141,0.55,-0.82,9.95,-0.03,-0.01,-0.0,32.09,17.345706,-11.319600963532165,-134.8707803317986,9.998869936147784,0.03162277660168379,-0.1529976387640686,-0.28624692217789727
19305193,1992.0,1,201163.0,233293,0.57,-0.82,9.95,-0.03,-0.01,0.0,32.09,17.385703,-29.44601393786916,-74.28967721695443,9.999989999994998,0.03162277660168379,-0.4208007054726535,-0.1626951842515045
19345196,2032.0,1,201302.0,233470,0.56,-0.84,9.96,-0.03,-0.01,-0.0,32.09,17.425706,-48.009959728975915,3.6202041996253973,10.011033912638595,0.03162277660168379,-0.695067965084847,-0.003802381781240879
19385880,2015.0,1,201411.0,233681,0.58,-0.82,9.94,-0.03,-0.01,0.0,31.97,17.46639,-9.674598395019038,97.74378273336322,9.990615596648686,0.03162277660168379,-0.1286940585016627,0.18815734014143798
19424197,2102.0,1,201510.0,233889,0.57,-0.81,9.92,-0.03,-0.01,0.0,31.97,17.504707,25.839755838834378,193.62737085763652,9.969322945917641,0.03162277660168379,0.3960017535967504,0.38370650221124575
19464197,2057.0,1,201580.0,234184,0.59,-0.83,9.97,-0.03,-0.01,0.0,31.97,17.544707,13.02741462956388,285.97086244738085,10.021871082786888,0.03162277660168379,0.20670979205878812,0.5720358373584717
19504196,2096.0,1,201693.0,234273,0.57,-0.85,9.95,-0.03,-0.01,-0.0,31.97,17.584706,36.68381524316548,385.9606718315052,10.002494688826381,0.03162277660168379,0.5562139460565309,0.7759594057510423
19544197,2137.0,1,201716.0,234417,0.56,-0.85,9.96,-0.03,-0.01,-0.0,31.97,17.624707,68.99048749836231,501.1952745586363,10.011877945720274,0.03162277660168379,1.0335188556015105,1.0109738690764203
19584197,2095.0,1,201815.0,234728,0.58,-0.84,9.96,-0.03,-0.01,-0.0,31.97,17.664707,50.6396015308635,606.0877266672294,10.01217259140093,0.03162277660168379,0.762399382274192,1.2248961003835965
19624196,2098.0,1,201858.0,234950,0.57,-0.85,9.96,-0.03,-0.01,0.0,31.97,17.704706,16.948446885878454,636.8625828715378,10.012442259508916,0.03162277660168379,0.2646398670488584,1.2876596813185475
19664196,2046.0,1,201947.0,234699,0.56,-0.83,9.94,-0.03,-0.01,0.0,31.97,17.744706,2.8854587881586315,528.3681207828536,9.990300295786907,0.03162277660168379,0.05687061093692491,1.066391354113698
19704196,2112.0,1,201589.0,233083,0.58,-0.84,9.97,-0.03,-0.01,-0.0,31.97,17.784706,34.21912883437767,269.75424418174964,10.02212053409856,0.03162277660168379,0.5198002011152216,0.5389629603887441
19744196,2053.0,1,201109.0,231832,0.58,-0.83,9.94,-0.03,-0.01,-0.0,31.97,17.824706,0.4544747881502769,-69.65122694369776,9.99144133746478,0.03162277660168379,0.02095479178156042,-0.15323532691844136
19784194,2017.0,1,200770.0,231385,0.57,-0.82,9.94,-0.03,-0.01,-0.0,31.97,17.864704,-50.97558156874069,-372.8984300869442,9.9900400399598,0.03162277660168379,-0.7388826251894898,-0.7716908690474771
19824196,2064.0,1,200780.0,231306,0.56,-0.82,9.96,-0.03,-0.01,-0.0,31.97,17.904706,4.6502829387615705,-543.9136913491287,10.009375604901637,0.03162277660168379,0.08294445800208743,-1.1204668347281306
19864196,2085.0,1,200727.0,231358,0.58,-0.83,9.94,-0.03,-0.01,-0.0,31.97,17.944706,21.20462606009801,-558.3881373220089,9.99144133746478,0.03162277660168379,0.32752146623403317,-1.1499866497120346
19904197,2055.0,1,200804.0,231790,0.57,-0.84,9.94,-0.03,-0.01,-0.0,31.97,17.984707,-1.332896860571432,-462.3749396182485,9.991701556792016,0.03162277660168379,-0.005452176301608345,-0.9541731562257588
19944194,2079.0,1,200941.0,232176,0.57,-0.84,9.95,-0.03,-0.01,0.0,31.97,18.024704,12.928824341140084,-329.0702637442997,10.001649863897455,0.03162277660168379,0.20525320041956216,-0.682305799391426
19984200,2067.0,1,201076.0,232389,0.58,-0.83,9.96,-0.03,-0.01,-0.0,31.97,18.06471,18.828257781467133,-211.9285087717701,10.011338571839433,0.03162277660168379,0.2924125501154745,-0.44340180678556407
20024220,2095.0,1,201116.0,232557,0.55,-0.83,9.95,-0.03,-0.01,0.0,31.97,18.10473,27.02638831537041,-125.29784997195026,9.999694995348607,0.03162277660168379,0.4135332870955328,-0.2667234714284872
20064196,2054.0,1,201196.0,232795,0.56,-0.83,9.96,-0.03,-0.01,-0.0,31.97,18.144706,12.762320221456347,-56.64211525743824,10.010199798205829,0.03162277660168379,0.20279323694338802,-0.12670397844383635
20104196,2070.0,1,201265.0,233106,0.57,-0.83,9.95,-0.03,-0.01,-0.0,31.97,18.184706,3.7923523059916175,9.131193262556177,10.000814966791456,0.03162277660168379,0.07026922794943914,0.007436969128690004
20144196,2068.0,1,201420.0,233435,0.56,-0.82,9.96,-0.03,-0.01,-0.0,31.97,18.224706,31.74139066125245,76.6761919581895,10.009375604901637,0.03162277660168379,0.48319362692962325,0.145191178741895
20184223,2087.0,1,201427.0,233719,0.57,-0.83,9.96,-0.03,-0.01,-0.0,31.97,18.264733,24.635624591759235,145.89583623779473,10.010764206592823,0.03162277660168379,0.3782116899397598,0.2863607334325617
20224197,2042.0,1,201569.0,233994,0.57,-0.82,9.97,-0.03,-0.01,-0.0,31.97,18.304707,10.25044816723471,223.16579963954572,10.019890218959487,0.03162277660168379,0.1656823623179161,0.4439484592568516
20264194,2064.0,1,201622.0,234219,0.57,-0.84,9.96,-0.03,-0.01,-0.0,31.97,18.344704,6.158756457490252,319.4146064018039,10.01159827400201,0.03162277660168379,0.10523093216198706,0.6402424641097397
20304196,2002.0,1,201718.0,234480,0.58,-0.83,9.99,-0.03,-0.01,0.0,31.97,18.384706,-25.48393725654927,431.1383129798734,10.04118518901031,0.03162277660168379,-0.36226423235498484,0.8680966530493356
20344197,2023.0,1,201806.0,234782,0.57,-0.83,9.96,-0.03,-0.01,-0.0,31.97,18.424707,-30.366369215587767,521.7200845923705,10.010764206592823,0.03162277660168379,-0.43439820908152676,1.0528330598123439
20384211,2001.0,1,201915.0,235012,0.57,-0.85,9.96,-0.03,-0.01,0.0,31.97,18.464721,-21.830569598885194,527.2714927764786,10.012442259508916,0.03162277660168379,-0.308288684963365,1.0641548432368733
20424883,2034.0,1,201743.0,235018,0.56,-0.83,9.95,-0.03,-0.01,-0.0,31.97,18.505393,-16.351694201262994,393.629370678303,10.000249996875077,0.03162277660168379,-0.22734273963624707,0.7915992838886168
20465196,2032.0,1,201635.0,233747,0.59,-0.83,9.96,-0.03,-0.01,-0.0,31.97,18.545706,14.357010511157172,121.44520562724968,10.011922892232041,0.03162277660168379,0.22635349404648447,0.23649505337714385
20505196,2030.0,1,201063.0,232340,0.57,-0.83,9.96,-0.03,-0.01,-0.0,31.97,18.585706,-17.672257978925188,-217.994101286307,10.010764206592823,0.03162277660168379,-0.2468529996056575,-0.4557722401087025
20545196,1955.0,1,200818.0,231890,0.58,-0.84,9.95,-0.03,-0.01,-0.0,31.97,18.625706,-60.5822886416277,-514.7258711222227,10.00222475252381,0.03162277660168379,-0.8808139393845585,-1.0609399240266029
20585196,2013.0,1,200766.0,231926,0.58,-0.84,9.97,-0.03,-0.01,-0.0,31.97,18.665706,-28.159429423358173,-679.7587453099214,10.02212053409856,0.03162277660168379,-0.4017924615882387,-1.3975151491793076
20625196,1988.0,1,200795.0,232008,0.58,-0.83,9.97,-0.03,-0.01,0.0,31.97,18.705706,-32.1347980656355,-689.6651518315002,10.021287342452565,0.03162277660168379,-0.460525312660664,-1.4177187057244263
20665196,1981.0,1,200834.0,232260,0.56,-0.84,9.97,-0.03,-0.01,-0.0,31.97,18.745706,-49.79264472923293,-587.6651623616027,10.020982985715523,0.03162277660168379,-0.7214056917338056,-1.2096954885903748
20705196,2000.0,1,201025.0,232770,0.57,-0.83,9.96,-0.03,-0.01,-0.0,31.97,18.785706,-27.843493199349844,-447.353244021184,10.010764206592823,0.03162277660168379,-0.3971247598320475,-0.9235372565442986
20745194,1990.0,1,201150.0,233103,0.57,-0.83,9.98,-0.03,-0.01,0.0,31.97,18.825704,-33.09357847332,-328.01787161680414,10.030662989055111,0.03162277660168379,-0.47469051643493193,-0.6801595050909468
20785196,1984.0,1,201263.0,233350,0.58,-0.85,9.98,-0.03,-0.01,-0.0,31.97,18.865706,-47.89655431175685,-248.72408108201878,10.032910843817959,0.03162277660168379,-0.6933924919200444,-0.5184442981431295
20825194,2006.0,1,201315.0,233616,0.57,-0.84,9.94,-0.03,-0.01,-0.0,31.97,18.905704,-17.094437213681058,-191.51647047813745,9.991701556792016,0.03162277660168379,-0.2383161659166447,-0.4017726076437537
20863196,2071.0,1,201399.0,233913,0.57,-0.83,9.97,-0.03,-0.01,0.0,31.97,18.943706,40.00463381989134,-125.62033650683736,10.020713547447608,0.03162277660168379,0.6052763501896106,-0.2673811645009892
20903196,2089.0,1,201475.0,234184,0.56,-0.82,9.97,-0.03,-0.01,-0.0,31.97,18.983706,60.8923658866173,-33.01367349632726,10.01932632465876,0.03162277660168379,0.9138756694248088,-0.07851510610614375
20943196,2107.0,1,201618.0,234417,0.57,-0.83,9.98,-0.03,-0.01,-0.0,31.97,19.023706,76.05348082981617,83.11056940287115,10.030662989055111,0.03162277660168379,1.1378688600388784,0.15831372809953462
20983196,2094.0,1,201870.0,234687,0.58,-0.84,9.95,-0.03,-0.01,-0.0,31.97,19.063706,62.862019157711885,210.62690803212877,10.00222475252381,0.03162277660168379,0.9429757008043498,0.41837609807303183
21024223,2016.0,1,201975.0,234897,0.57,-0.83,9.96,-0.03,-0.01,-0.0,31.97,19.104733,-21.157447833421383,345.47993720915997,10.010764206592823,0.03162277660168379,-0.29834385620354803,0.6934012340114732
21064197,2011.0,1,202077.0,235115,0.59,-0.82,9.97,-0.03,-0.01,-0.0,31.97,19.144707,-19.34377307412359,490.6957650861507,10.021047849401779,0.03162277660168379,-0.27154828097089945,0.9895607125638846
21104197,2085.0,1,202161.0,235335,0.57,-0.84,9.95,-0.03,-0.01,-0.0,31.97,19.184707,38.373123648699604,632.8114514311382,10.001649863897455,0.03162277660168379,0.5811721091668566,1.2793976275708503
21144196,2063.0,1,202232.0,235689,0.58,-0.83,9.97,-0.03,-0.01,-0.0,31.97,19.224706,31.155588624259366,721.1761560559405,10.021287342452565,0.03162277660168379,0.4745388764164913,1.4596124514417539
21184197,2069.0,1,202396.0,235927,0.56,-0.83,9.96,-0.03,-0.01,-0.0,31.97,19.264707,16.460340157774645,683.9782715566989,10.010199798205829,0.03162277660168379,0.2574284855773914,1.3837494670990274
21224196,2041.0,1,202342.0,234879,0.55,-0.83,9.95,-0.03,-0.01,0.0,31.97,19.304706,2.0161124798161985,482.5453073420673,9.999694995348607,0.03162277660168379,0.04402672352602329,0.9729383143670716
21264196,2064.0,1,201763.0,233312,0.57,-0.83,9.96,-0.03,-0.01,-0.0,31.97,19.344706,7.5367781029777685,159.17787348493607,10.010764206592823,0.03162277660168379,0.12559008557942516,0.3134486981725979
21304197,2014.0,1,201290.0,232641,0.57,-0.81,9.97,-0.03,-0.01,-0.0,31.97,19.384707,-30.756414696745658,-172.79961211549147,10.019076803777882,0.03162277660168379,-0.4401608150730042,-0.3636006322202752
21344196,1993.0,1,201236.0,232582,0.57,-0.84,9.96,-0.03,-0.01,0.0,31.97,19.424706,-73.98071111354189,-397.43419868356546,10.01159827400201,0.03162277660168379,-1.0787647767684276,-0.8217301832165447
21384197,2042.0,1,201254.0,232747,0.59,-0.83,9.96,-0.03,-0.01,-0.0,31.97,19.464707,-0.5290777254375393,-466.26906072842064,10.011922892232041,0.03162277660168379,0.006423600211520149,-0.962114996273563
21424196,2061.0,1,201339.0,233031,0.57,-0.84,9.96,-0.03,-0.01,-0.0,31.97,19.504706,-22.77378467265627,-412.9416372527338,10.01159827400201,0.03162277660168379,-0.32222392353920887,-0.853356728252798
21464883,1965.0,1,201332.0,233633,0.57,-0.83,9.96,-0.03,-0.01,-0.0,32.11,19.545393,-74.88299958235834,-309.80290444888203,10.010764206592823,0.03162277660168379,-1.092095357912471,-0.6430111084101752
21503196,2093.0,1,201424.0,233854,0.56,-0.82,9.96,-0.03,-0.01,-0.0,32.11,19.583706,-0.31994414355755185,-212.79013397690122,10.009375604901637,0.03162277660168379,0.009513379455681948,-0.44515904272320167
21543196,2047.0,1,201484.0,233974,0.57,-0.83,9.97,-0.03,-0.01,-0.0,32.11,19.623706,-2.839488035173593,-138.41648726931857,10.020713547447608,0.03162277660168379,-0.027710840352006626,-0.2934781912004799
21583196,2084.0,1,201565.0,234164,0.56,-0.84,9.98,-0.03,-0.01,0.0,32.11,19.663706,-3.7331394102907596,-77.90318808567424,10.03093216007366,0.03162277660168379,-0.04091381543392433,-0.17006473556191712
21623196,2103.0,1,201598.0,234348,0.58,-0.83,9.96,-0.03,-0.01,-0.0,32.11,19.703706,32.13831298708,-21.82336586269973,10.011338571839433,0.03162277660168379,0.489057832729867,-0.05569310576315417
21663196,2064.0,1,201693.0,234675,0.57,-0.82,9.94,-0.03,-0.01,-0.0,32.11,19.743706,-12.027646799745408,31.26437555930453,9.9900400399598,0.03162277660168379,-0.1634584423757157,0.052576344247378975
21703196,2082.0,1,201725.0,234967,0.56,-0.83,9.95,-0.03,-0.01,-0.0,32.11,19.783706,-7.531206679618948,85.09914944373325,10.000249996875077,0.03162277660168379,-0.09702718236049869,0.16236932476948115
21743196,2089.0,1,201852.0,235114,0.57,-0.82,9.97,-0.03,-0.01,-0.0,32.11,19.823706,18.984745911856088,155.4505691391598,10.019890218959487,0.03162277660168379,0.29472453546420224,0.30584707149326434
21783197,2099.0,1,201799.0,235296,0.58,-0.84,9.96,-0.03,-0.01,-0.0,32.11,19.863707,0.9024762861868133,259.1018980144773,10.01217259140093,0.03162277660168379,0.02757365096975636,0.5172381020700524
21823197,2089.0,1,201917.0,235506,0.57,-0.83,9.96,-0.03,-0.01,-0.0,32.11,19.903707,17.31332209375451,384.89902949182925,10.010764206592823,0.03162277660168379,0.2700306026441184,0.7737942461653123
21863197,2135.0,1,201968.0,235693,0.57,-0.82,9.96,-0.03,-0.01,-0.0,32.11,19.943707,36.826529939335394,476.10699620806423,10.009940059760599,0.03162277660168379,0.5583224400731239,0.9598077424722523
21903196,2106.0,1,202104.0,235796,0.57,-0.83,9.95,-0.03,-0.01,0.0,32.11,19.983706,28.91204049855607,453.4920786888877,10.000814966791456,0.03162277660168379,0.4413922704541158,0.9136858955778592
21943196,2111.0,1,201996.0,234687,0.58,-0.82,9.98,-0.03,-0.01,0.0,32.11,20.023706,17.155367655581284,273.18148618335715,10.03041375018997,0.03162277660168379,0.26769695378579705,0.5459526268659328
21983196,2085.0,1,201443.0,233019,0.59,-0.83,9.97,-0.03,-0.01,-0.0,32.11,20.063706,2.915631736030516,-27.138487998856036,10.021871082786888,0.03162277660168379,0.0573163917973284,-0.06653299713931901
22023206,2097.0,1,201024.0,232216,0.56,-0.83,9.99,-0.03,-0.01,-0.0,32.11,20.103716,8.251868506135805,-339.54524372804224,10.040049800673302,0.03162277660168379,0.13615496696057472,-0.7036689293971992
22063196,2101.0,1,200950.0,232077,0.59,-0.82,9.97,-0.03,-0.01,-0.0,32.11,20.143706,17.76827735914018,-551.167022796018,10.021047849401779,0.03162277660168379,0.27675219811135154,-1.135259594515295
22103197,2083.0,1,200933.0,232035,0.58,-0.83,9.98,-0.03,-0.01,-0.0,32.11,20.183707,-2.542121024282287,-610.4620931975776,10.0312362149438,0.03162277660168379,-0.023317483675900676,-1.256188541363498
22143196,2046.0,1,200966.0,232224,0.56,-0.82,9.96,-0.03,-0.01,-0.0,32.11,20.223706,-33.18600305299079,-543.878619702343,10.009375604901637,0.03162277660168379,-0.47605601472243825,-1.1203953080855056
22183197,2055.0,1,201021.0,232589,0.58,-0.83,9.96,-0.03,-0.01,-0.0,32.11,20.263707,-28.639618377199557,-419.8784124249824,10.011338571839433,0.03162277660168379,-0.4088868643595081,-0.8675038893982668
22223196,2096.0,1,201133.0,232724,0.57,-0.86,9.95,-0.03,-0.01,-0.0,32.11,20.303706,23.18064428710304,-298.24894642541125,10.003349439062896,0.03162277660168379,0.3567155346806262,-0.6194474636376088
22263196,2112.0,1,201197.0,232840,0.59,-0.84,9.95,-0.03,-0.01,0.0,32.11,20.343706,33.34888977811562,-202.76381310575562,10.0028096053059,0.03162277660168379,0.5069431240770612,-0.4247109276354101
22303196,2085.0,1,201247.0,232987,0.55,-0.83,9.97,-0.03,-0.01,-0.0,32.11,20.383706,15.927164475682318,-126.25289255983,10.019595800230666,0.03162277660168379,0.24955124682304322,-0.2686712268416327
22343197,2106.0,1,201320.0,233295,0.56,-0.83,9.96,-0.03,-0.01,0.0,32.11,20.423707,38.47713456169667,-50.81800635869508,10.010199798205829,0.03162277660168379,0.5827087861426714,-0.11482603731509569
22383196,2083.0,1,201437.0,233592,0.57,-0.82,9.94,-0.03,-0.01,-0.0,32.11,20.463706,15.079168585480408,38.30411762574946,9.9900400399598,0.03162277660168379,0.2370227945432752,0.0669335005575566
22423196,2057.0,1,201522.0,233922,0.58,-0.82,9.95,-0.03,-0.01,-0.0,32.11,20.503706,2.25334864124343,151.54006475349772,10.00056498403965,0.03162277660168379,0.04753169561588649,0.297871818680495
22463196,2071.0,1,201686.0,234111,0.58,-0.85,9.97,-0.03,-0.01,-0.0,32.11,20.543706,8.512633886552305,295.5458436203746,10.022963633576648,0.03162277660168379,0.14000756419897145,0.5915634706254533
22503883,2003.0,1,201750.0,234343,0.55,-0.83,9.95,-0.03,-0.01,-0.0,32.13,20.584393,-44.47724211933981,463.0909329742129,9.999694995348607,0.03162277660168379,-0.6428749244090443,0.9332622167089865
22544196,2037.0,1,201837.0,234513,0.57,-0.83,9.96,-0.03,-0.01,-0.0,32.13,20.624706,-12.83002492179347,616.6083701157129,10.010764206592823,0.03162277660168379,-0.17531292908792775,1.2463523584464438
22584196,2063.0,1,201953.0,234714,0.57,-0.85,9.98,-0.03,-0.01,0.0,32.13,20.664706,19.497152356512014,687.4984237218807,10.032337713613911,0.03162277660168379,0.30229492556148063,1.3909286186068677
22624196,2022.0,1,201994.0,234522,0.56,-0.81,9.96,-0.03,-0.01,0.0,32.13,20.704706,-15.58809186445826,608.2327549116866,10.008561335177,0.03162277660168379,-0.21606113373707278,1.2292707643279206
22664196,2057.0,1,201756.0,233018,0.55,-0.82,9.97,-0.03,-0.01,-0.0,32.13,20.744706,22.42446386951938,363.14420426811256,10.018772379887668,0.03162277660168379,0.3455435816251271,0.7294265089258674
22704196,2033.0,1,201184.0,231600,0.56,-0.84,9.94,-0.03,-0.01,-0.0,32.13,20.784706,1.7343873839635227,16.070226318972203,9.99113607153861,0.03162277660168379,0.03986446347242456,0.02158873510138352
22744196,1979.0,1,200825.0,231041,0.57,-0.83,9.94,-0.03,-0.01,-0.0,32.13,20.824706,-43.18918783671326,-315.8592603637441,9.99086582834541,0.03162277660168379,-0.6238449658914443,-0.655362704209999
22784196,2029.0,1,200762.0,230906,0.57,-0.81,9.93,-0.03,-0.01,-0.0,32.13,20.864706,5.060421107091181,-527.1400088594727,9.979273520652693,0.03162277660168379,0.08900391716857643,-1.0862578567388421
22824196,2023.0,1,200673.0,230976,0.58,-0.82,9.96,-0.03,-0.01,-0.0,32.13,20.904706,6.504641338207539,-578.1108771079197,10.01051447229362,0.03162277660168379,0.1103411010583575,-1.1902100634818344
22864196,1980.0,1,200772.0,231261,0.58,-0.83,9.95,-0.03,-0.01,0.0,32.13,20.944706,-28.26378638777249,-501.4485862200048,10.001389903408425,0.03162277660168379,-0.4033342511933923,-1.0338616514256056
22904196,1985.0,1,200817.0,231717,0.58,-0.85,9.96,-0.03,-0.01,-0.0,32.13,20.984706,-34.52651906527033,-366.157905678956,10.013016528499291,0.03162277660168379,-0.495861052794156,-0.7579439502506461
22944196,1972.0,1,201012.0,231924,0.56,-0.83,9.95,-0.03,-0.01,0.0,32.13,21.024706,-17.84206059645202,-233.14873815070496,10.000249996875077,0.03162277660168379,-0.2493616957152083,-0.48667926599580547
22984196,2022.0,1,201024.0,232111,0.57,-0.81,9.97,-0.03,-0.01,0.0,32.13,21.064706,1.1804301446522718,-131.84679395002777,10.019076803777882,0.03162277660168379,0.03168019404620066,-0.2800796727597865
23024219,1990.0,1,201149.0,232306,0.58,-0.83,9.95,-0.03,-0.01,-0.0,32.13,21.104729,8.43651702563466,-63.050713396049524,10.001389903408425,0.03162277660168379,0.13888299924445807,-0.1397739523628695
23064196,2024.0,1,201140.0,232546,0.56,-0.83,9.93,-0.03,-0.01,-0.0,32.13,21.144706,13.859166563826877,-13.505673826480184,9.980350695241125,0.03162277660168379,0.21899825304948642,-0.03872964267362794
23104196,1985.0,1,201240.0,232856,0.56,-0.81,9.95,-0.03,-0.01,0.0,32.13,21.184706,-3.499637075528498,34.37741015215872,9.998609903381569,0.03162277660168379,-0.03746400760810238,0.05892520246217553
23144196,1995.0,1,201333.0,233173,0.57,-0.85,9.96,-0.03,-0.01,0.0,32.13,21.224706,4.736427491878037,101.06002493089584,10.012442259508916,0.03162277660168379,0.0842171739849734,0.19492062878795322
23184196,2022.0,1,201460.0,233389,0.57,-0.81,9.96,-0.03,-0.01,-0.0,32.13,21.264706,20.97750549769633,205.72799593828816,10.009125835955906,0.03162277660168379,0.32416594392469034,0.4083850435688704
23224196,1989.0,1,201446.0,233731,0.55,-0.83,9.96,-0.03,-0.01,-0.0,32.13,21.304706,13.074405852657847,349.09342130409084,10.00964534836275,0.03162277660168379,0.20740404931038933,0.7007707307182556
23264196,2033.0,1,201568.0,234042,0.56,-0.84,9.97,-0.03,-0.01,-0.0,32.13,21.344706,29.382827837848364,491.87956559706754,10.020982985715523,0.03162277660168379,0.44834777198707493,0.9919750068398515
23304196,2009.0,1,201691.0,234298,0.57,-0.84,9.95,-0.03,-0.01,0.0,32.13,21.384706,29.32326761327993,556.3577777141816,10.001649863897455,0.03162277660168379,0.4474678179213775,1.1234746784512128
23344196,2000.0,1,201823.0,234314,0.61,-0.84,9.96,-0.03,-0.01,-0.0,32.13,21.424706,9.862241801165238,468.40810855565064,10.013955262532383,0.03162277660168379,0.1599469277619238,0.9441062959708156
23384197,2018.0,1,201458.0,232844,0.56,-0.83,9.96,-0.03,-0.01,-0.0,32.13,21.464707,17.98513046896045,217.5846949581264,10.010199798205829,0.03162277660168379,0.2799560271269092,0.4325661115034393
23424196,2015.0,1,200963.0,231252,0.58,-0.85,9.96,-0.03,-0.01,-0.0,32.13,21.504706,45.883767603372554,-117.26849167647397,10.013016528499291,0.03162277660168379,0.6921357889012514,-0.25034804871690053
23464202,2047.0,1,200597.0,230647,0.58,-0.84,9.93,-0.03,-0.01,0.0,32.13,21.544712,23.553338508141927,-407.96173948353714,9.982329387472646,0.03162277660168379,0.36222178986084796,-0.8432005080381605
23504883,1893.0,1,200687.0,230580,0.57,-0.82,9.94,-0.03,-0.01,-0.0,31.97,21.585393,-62.63780308729739,-554.9399383819782,9.9900400399598,0.03162277660168379,-0.9111825000586141,-1.1429542427426682
23543196,1935.0,1,200683.0,230635,0.57,-0.83,9.94,-0.03,-0.01,-0.0,31.97,21.623706,-101.12818707009254,-541.0430238630149,9.99086582834541,0.03162277660168379,-1.4798467406878644,-1.114612270537614
23583196,1898.0,1,200753.0,230877,0.57,-0.83,9.94,-0.03,-0.01,-0.0,31.97,21.663706,-61.06987969307369,-423.8581100457081,9.99086582834541,0.03162277660168379,-0.8880177021511781,-0.8756202579056225
23623197,2007.0,1,200857.0,231312,0.56,-0.82,9.95,-0.03,-0.01,0.0,31.97,21.703707,-27.15314038505368,-283.6160501059358,9.999424983467799,0.03162277660168379,-0.3869253562853467,-0.5896044981217677
23663234,1936.0,1,200999.0,231544,0.58,-0.83,9.96,-0.03,-0.01,0.0,31.97,21.743744,-40.71478105985147,-172.43767847464733,10.011338571839433,0.03162277660168379,-0.5872876103867306,-0.36286248900331286
23703196,1977.0,1,201084.0,231643,0.57,-0.84,9.94,-0.03,-0.01,-0.0,31.97,21.783706,-48.0277506311522,-97.30268255892449,9.991701556792016,0.03162277660168379,-0.6953308112513261,-0.20962890877480506
23743196,1951.0,1,201081.0,231778,0.54,-0.84,9.96,-0.03,-0.01,-0.0,31.97,21.823706,-46.216160468005704,-36.895542100642736,10.009935064724447,0.03162277660168379,-0.668566034237992,-0.08643195786032645
23783197,1989.0,1,201176.0,232077,0.58,-0.82,9.95,-0.03,-0.01,-0.0,31.97,21.863707,-31.13583736533689,30.52644273251492,10.00056498403965,0.03162277660168379,-0.4457664776148069,0.051071371928701405
23823196,2019.0,1,201299.0,232407,0.58,-0.81,9.96,-0.03,-0.01,-0.0,31.97,21.903706,8.004353151903368,112.69669565176272,10.009700295213639,0.03162277660168379,0.13249812812463108,0.21865296143489685
23863196,2000.0,1,201432.0,232645,0.58,-0.83,9.95,-0.03,-0.01,-0.0,31.97,21.943706,-23.52726951579181,209.37003175112153,10.001389903408425,0.03162277660168379,-0.3333560516660379,0.41581276989159344
23903196,1978.0,1,201522.0,232900,0.57,-0.83,9.97,-0.03,-0.01,-0.0,31.97,21.983706,-41.2747328251002,323.93725938873996,10.020713547447608,0.03162277660168379,-0.5955604440772574,0.6494661594180714
23943197,2058.0,1,201614.0,233184,0.58,-0.84,9.95,-0.03,-0.01,-0.0,31.97,22.023707,29.587262134611024,459.7417849127796,10.00222475252381,0.03162277660168379,0.45136812310072133,0.926431818411708
23983196,2075.0,1,201714.0,233416,0.57,-0.83,9.96,-0.03,-0.01,-0.0,31.97,22.063706,44.744000183500276,598.6010438565124,10.010764206592823,0.03162277660168379,0.6752966486472767,1.2096274336705752
24023207,2021.0,1,201782.0,233653,0.58,-0.82,9.94,-0.03,-0.01,-0.0,31.97,22.103717,-6.37295461172855,685.164780935871,9.990615596648686,0.03162277660168379,-0.07991494640726514,1.3861692859587924
24063196,2016.0,1,201901.0,233827,0.56,-0.84,9.95,-0.03,-0.01,-0.0,31.97,22.143706,-30.504234917033685,645.1133143837856,10.001084941145134,0.03162277660168379,-0.43643506312945224,1.3044865822016463
24102197,2041.0,1,201748.0,233031,0.58,-0.86,9.95,-0.03,-0.01,-0.0,31.97,22.182707,18.52679559942374,436.1271096364585,10.003924230020935,0.03162277660168379,0.2879586906032709,0.8782710220421551
24142196,2138.0,1,201279.0,231209,0.59,-0.83,9.97,-0.03,-0.01,0.0,31.97,22.222706,76.97796720362243,92.7244935907706,10.021871082786888,0.03162277660168379,1.1515273972456679,0.17792078344575052
24182196,2083.0,1,200776.0,230113,0.55,-0.85,9.96,-0.03,-0.01,-0.0,31.97,22.262706,60.7040558327282,-278.77061113604776,10.011323588816817,0.03162277660168379,0.9110935409366762,-0.5797224990335199
24222196,2108.0,1,200610.0,229873,0.56,-0.83,9.96,-0.03,-0.01,-0.0,31.97,22.302706,42.65267650259003,-558.3735739051825,10.010199798205829,0.03162277660168379,0.6443990355331446,-1.1499569484460206
24262196,2112.0,1,200586.0,229912,0.56,-0.83,9.96,-0.03,-0.01,-0.0,31.97,22.342706,80.07349553457372,-679.3482535897518,10.010199798205829,0.03162277660168379,1.1972613205147524,-1.3966779745023263
24302196,2146.0,1,200577.0,230001,0.57,-0.84,9.94,-0.03,-0.01,-0.0,31.97,22.382706,87.5407387423349,-653.6319366308902,9.991701556792016,0.03162277660168379,1.3075837893743385,-1.3442309986308225
24342196,2085.0,1,200658.0,230492,0.57,-0.82,9.95,-0.03,-0.01,0.0,31.97,22.422706,37.702564202511525,-544.3644973221477,9.999989999994998,0.03162277660168379,0.5712651365984934,-1.121386228046679
24382196,2091.0,1,200811.0,230874,0.58,-0.84,9.97,-0.03,-0.01,-0.0,31.97,22.462706,42.6568610578759,-415.83507442359183,10.02212053409856,0.03162277660168379,0.644460858947405,-0.8592577299292223
24422197,2127.0,1,200943.0,231083,0.57,-0.85,9.97,-0.03,-0.01,0.0,31.97,22.502707,69.17690337731963,-300.2150518341413,10.022389934541561,0.03162277660168379,1.0362729991895787,-0.6234572245647841
24462196,2098.0,1,200995.0,231382,0.58,-0.84,9.96,-0.03,-0.01,-0.0,31.97,22.542706,52.600758902347316,-198.3460901299846,10.01217259140093,0.03162277660168379,0.7913738936198778,-0.41570123115795976
24502197,2102.0,1,201083.0,231664,0.56,-0.84,9.94,-0.03,-0.01,0.0,31.97,22.582707,45.766227054385745,-102.44841585180113,9.99113607153861,0.03162277660168379,0.6903992225146286,-0.22012334117289764
24542883,2035.0,1,201234.0,231904,0.58,-0.82,9.96,-0.03,-0.01,-0.0,31.91,22.623393,-16.367522938026827,-13.948846952955106,10.01051447229362,0.03162277660168379,-0.22757659639839184,-0.03963346923278535
24583196,1970.0,1,201353.0,232206,0.57,-0.83,9.96,-0.03,-0.01,-0.0,31.91,22.663706,-77.30128990129444,60.76882214573648,10.010764206592823,0.03162277660168379,-1.1278236382136904,0.11274899652476678
24623196,2015.0,1,201448.0,232500,0.58,-0.83,9.98,-0.03,-0.01,0.0,31.91,22.703706,-41.81784317078888,128.21452065648373,10.0312362149438,0.03162277660168379,-0.6035844594377432,0.25030068901979
24663196,2026.0,1,201447.0,232837,0.57,-0.84,9.95,-0.03,-0.01,-0.0,31.91,22.743706,-16.183316036217633,213.05639744847585,10.001649863897455,0.03162277660168379,-0.22485508865809972,0.423330904509858
24703196,2023.0,1,201566.0,233197,0.54,-0.83,9.96,-0.03,-0.01,-0.0,31.91,22.783706,-30.23854253238543,335.17827150113294,10.009100858718531,0.03162277660168379,-0.4325096733951095,0.6723915686815002
24743197,1985.0,1,201678.0,233583,0.58,-0.83,9.94,-0.03,-0.01,0.0,31.91,22.823707,-59.65173986283596,474.82634334566274,9.99144133746478,0.03162277660168379,-0.8670658350555237,0.957195923296062
24783197,1985.0,1,201830.0,233793,0.57,-0.81,9.98,-0.03,-0.01,-0.0,31.91,22.863707,-57.91405611441222,563.2337480708854,10.029027869140657,0.03162277660168379,-0.8413929654449509,1.1374978316098907
24823196,2022.0,1,201880.0,233867,0.57,-0.83,9.93,-0.03,-0.01,-0.0,31.91,22.903706,-26.593040998959925,520.1794817990299,9.980916791557778,0.03162277660168379,-0.37865034161642874,1.0496910874350722
24863196,1988.0,1,201756.0,232717,0.58,-0.82,9.95,-0.03,-0.01,-0.0,31.91,22.943706,-45.81992280342051,316.2969205820956,10.00056498403965,0.03162277660168379,-0.6627119437529304,0.6338841199804952
24903197,1998.0,1,201188.0,231212,0.57,-0.84,9.97,-0.03,-0.01,-0.0,31.91,22.983707,-49.80691012502704,7.770220734923315,10.021546786798933,0.03162277660168379,-0.7216164513996525,0.0046613425320539015
24943196,2017.0,1,200913.0,230726,0.56,-0.84,9.97,-0.03,-0.01,-0.0,31.91,23.023706,-12.381182921148243,-291.0802818525176,10.020982985715523,0.03162277660168379,-0.16868165215461572,-0.6048273771576161
24983197,2026.0,1,200812.0,230653,0.57,-0.83,9.97,-0.03,-0.01,-0.0,31.91,23.063707,-16.77650514466145,-477.8989655609477,10.020713547447608,0.03162277660168379,-0.2336189771673317,-0.9858335302734035
25023207,1989.0,1,200867.0,230722,0.57,-0.82,9.96,-0.03,-0.01,-0.0,31.91,23.103717,-37.985689398032285,-518.4585022464661,10.009940059760599,0.03162277660168379,-0.5469674920379575,-1.0685524143697414
25063196,2025.0,1,200891.0,230956,0.59,-0.83,9.92,-0.03,-0.01,-0.0,31.91,23.143706,-12.467141508541019,-448.8908774063274,9.972131166405704,0.03162277660168379,-0.16995162064459302,-0.9266731729812767
25102234,2047.0,1,200970.0,231478,0.58,-0.84,9.95,-0.03,-0.01,-0.0,31.91,23.182744,23.53217105420793,-333.7677417553281,10.00222475252381,0.03162277660168379,0.36190905787763855,-0.6918860404615388
25142196,2039.0,1,201072.0,231750,0.57,-0.85,9.95,-0.03,-0.01,-0.0,31.91,23.222706,4.906077792967421,-221.46969376310327,10.002494688826381,0.03162277660168379,0.08672361974255902,-0.46286051464899974
25182197,2011.0,1,201159.0,231913,0.57,-0.83,9.94,-0.03,-0.01,0.0,31.91,23.262707,-7.407102478585445,-128.05864332838942,9.99086582834541,0.03162277660168379,-0.09519364333238294,-0.27235395353768665
25222196,2058.0,1,201249.0,232178,0.56,-0.84,9.93,-0.03,-0.01,0.0,31.91,23.302706,25.71086868772931,-48.86158884833959,9.981187304123694,0.03162277660168379,0.3940975503562009,-0.11083603430944196
25262196,2047.0,1,201333.0,232426,0.56,-0.83,9.96,-0.03,-0.01,-0.0,31.91,23.342706,34.27415428017814,24.065224436472683,10.010199798205829,0.03162277660168379,0.5206131574984418,0.03789408217079638
25302209,2067.0,1,201398.0,232693,0.57,-0.83,9.96,-0.03,-0.01,-0.0,31.91,23.382719,35.23191593857725,96.666410534181,10.010764206592823,0.03162277660168379,0.5347633100773507,0.18596010039573374
25342196,2027.0,1,201530.0,232987,0.56,-0.84,9.96,-0.03,-0.01,-0.0,31.91,23.422706,20.608141827917237,178.90783259926104,10.011033912638595,0.03162277660168379,0.31870889494110916,0.35368683535492035
25382196,2014.0,1,201603.0,233197,0.58,-0.83,9.94,-0.03,-0.01,-0.0,31.91,23.462706,-18.531081111432258,286.41366223455,9.99144133746478,0.03162277660168379,-0.2595414156188693,0.5729389025132028
25422196,2005.0,1,201683.0,233327,0.59,-0.83,9.95,-0.03,-0.01,-0.0,31.91,23.502706,4.090353183431159,425.4845323988439,10.001974805007258,0.03162277660168379,0.07467194949027268,0.85656608690371
25462197,2042.0,1,201786.0,233570,0.58,-0.84,9.92,-0.03,-0.01,-0.0,31.91,23.542707,10.884365561133771,569.3207402604379,9.972381861922457,0.03162277660168379,0.1750479782490125,1.1499119083614795
25502196,1989.0,1,201880.0,233763,0.59,-0.83,9.96,-0.03,-0.01,-0.0,31.91,23.582706,-12.317748169373317,651.4284998976267,10.011922892232041,0.03162277660168379,-0.1677444550883636,1.3173660463487997
25542197,2047.0,1,201930.0,233753,0.57,-0.81,9.95,-0.03,-0.01,-0.0,31.91,23.622707,23.927527666996873,596.1451840154143,9.999174965965942,0.03162277660168379,0.36775013153618846,1.2046188462419822
25582883,2023.0,1,201765.0,232431,0.56,-0.83,9.96,-0.03,-0.01,-0.0,32.09,23.663393,13.99393875329647,373.6535733993403,10.010199798205829,0.03162277660168379,0.2209894029641489,0.7508597736554925
25623196,1998.0,1,201205.0,230743,0.57,-0.81,9.96,-0.03,-0.01,0.0,32.09,23.703706,-13.813254370373402,36.22541917835931,10.009125835955906,0.03162277660168379,-0.1898393476342054,0.06269411248776398
25663197,2029.0,1,200854.0,230004,0.58,-0.83,9.95,-0.03,-0.01,-0.0,32.09,23.743707,12.855978681275309,-300.7676678598788,10.001389903408425,0.03162277660168379,0.20417696481046416,-0.6245842537351908
25703196,2013.0,1,200661.0,229829,0.58,-0.82,9.96,-0.03,-0.01,0.0,32.09,23.783706,5.904829776783488,-524.5163127494291,10.01051447229362,0.03162277660168379,0.10147937117147672,-1.0809069767198356
25743197,2000.0,1,200689.0,229802,0.58,-0.85,9.95,-0.03,-0.01,-0.0,32.09,23.823707,-14.496508170910287,-587.719838641737,10.003069528899616,0.03162277660168379,-0.19993386900382934,-1.2098069977753616
25783196,2000.0,1,200676.0,230082,0.58,-0.82,9.96,-0.03,-0.01,-0.0,32.09,23.863706,-12.572481764862518,-523.395367742087,10.01051447229362,0.03162277660168379,-0.17150793759106805,-1.0786208726930655
25823196,1994.0,1,200782.0,230440,0.57,-0.84,9.96,-0.03,-0.01,-0.0,32.09,23.903706,-12.191715016382997,-408.1496163872154,10.01159827400201,0.03162277660168379,-0.16588241735781287,-0.8435836723711321
25863196,2005.0,1,200877.0,230573,0.57,-0.82,9.97,-0.03,-0.01,-0.0,32.09,23.943706,-15.827864340804515,-308.4402025563751,10.019890218959487,0.03162277660168379,-0.2196035778250867,-0.6402319548715603
25903197,2007.0,1,200899.0,230640,0.59,-0.82,9.97,-0.03,-0.01,0.0,32.09,23.983707,5.358994890687566,-248.39318210540858,10.021047849401779,0.03162277660168379,0.09341510293374142,-0.5177694483709036
25943197,2043.0,1,200856.0,230895,0.56,-0.82,9.98,-0.03,-0.01,-0.0,32.09,24.023707,21.772036929287538,-212.97741348089914,10.029277142446508,0.03162277660168379,0.335904502142344,-0.4455409886932688
25983197,1998.0,1,200946.0,231211,0.57,-0.81,9.97,-0.03,-0.01,-0.0,32.09,24.063707,-10.492560282289249,-171.83290661684018,10.019076803777882,0.03162277660168379,-0.14077878271995317,-0.36162909095938156
26023208,1983.0,1,201040.0,231538,0.58,-0.83,9.96,-0.03,-0.01,-0.0,32.09,24.103718,-28.287784034594342,-99.18948774504496,10.011338571839433,0.03162277660168379,-0.40368879698365867,-0.21347694137717926
26063197,1987.0,1,201210.0,231863,0.59,-0.82,9.94,-0.03,-0.01,-0.0,32.09,24.143707,-35.849667569397276,20.929719758531668,9.991201128993449,0.03162277660168379,-0.515409500003085,0.031499397486670466
26103196,1982.0,1,201190.0,232107,0.56,-0.83,9.98,-0.03,-0.01,0.0,32.09,24.183706,-18.23932749620864,194.34903242680465,10.030099700401786,0.03162277660168379,-0.2552309923161,0.3851782902190736
