timestamp_us,ecg,leads,ir,red,accX,accY,accZ,gyroX,gyroY,gyroZ,temp,time_sec,ecg_filtered,ppg_filtered,accel_magnitude,gyro_magnitude,ecg_norm,ppg_norm
1949961,1835,1,209444.25,231651,0.5150000000000001,-0.7800000000000002,9.919999999999998,-0.03,-0.01,-0.0,31.61,0.030471,-3.6959504205831366,0.021525727758891857,9.963936220189286,0.03162277660168379,-0.07385061106911933,0.0016389626255977276
1990201,1835,1,209444.25,231679,0.55,-0.82,9.97,-0.03,-0.01,-0.0,31.61,0.070711,-16.954913113511676,-0.01572648937875712,10.018772379887668,0.03162277660168379,-0.38209584737273133,0.001505482764034512
2030192,1835,1,209444.25,231959,0.56,-0.8,9.95,-0.03,-0.01,-0.0,31.61,0.110702,-32.83592701227958,-0.05578625767803465,9.997804759045856,0.03162277660168379,-0.7512987024782414,0.00136194305720085
2070195,1835,1,209444.25,232481,0.55,-0.8,9.95,-0.03,-0.01,-0.0,31.61,0.150705,-43.94918867687439,-0.09819788927170323,9.99724962177098,0.03162277660168379,-1.00966054022094,0.0012099762979372356
2110192,1835,1,209444.25,232629,0.53,-0.81,9.99,-0.03,-0.01,-0.0,31.61,0.190702,-59.22109666516162,-0.14242768102100295,10.03678733460065,0.03162277660168379,-1.3647028610781577,0.0010514948186241635
2150195,1835,1,209444.25,232630,0.55,-0.81,9.95,-0.03,-0.01,-0.0,31.61,0.230705,-71.93761258518748,-0.18786663049281044,9.99805481081195,0.03162277660168379,-1.6603372591459329,0.0008886807594592116
2190192,1835,1,209444.25,232887,0.52,-0.82,9.97,-0.03,-0.01,-0.0,31.61,0.270702,-81.62540707957136,-0.23383466882057852,10.017170259110106,0.03162277660168379,-1.8855597424081298,0.0007239709015291203
2229195,1835,1,209444.25,233219,0.53,-0.81,9.97,-0.03,-0.01,-0.0,31.61,0.309705,-99.31161191964868,-0.27958646310423046,10.016880752010579,0.03162277660168379,-2.296729795186941,0.0005600358760060731
2269191,1835,1,209444.25,233291,0.54,-0.8,9.95,-0.03,-0.01,-0.0,31.61,0.349701,-101.68430491809173,-0.32431881841298565,9.996704456969805,0.03162277660168379,-2.351890317990966,0.0003997536417447798
2309195,1835,1,209444.25,233902,0.53,-0.8,9.97,-0.03,-0.01,-0.0,31.61,0.389705,-121.94427216641806,-0.3671796844820273,10.016077076380753,0.03162277660168379,-2.8228953684308835,0.000246177213038924
2349206,1835,1,209444.25,234812,0.55,-0.82,10.0,-0.03,-0.01,-0.0,31.61,0.429716,-122.29962330610654,-0.4072787450704077,10.048626771852959,0.03162277660168379,-2.831156595086454,0.00010249671648285228
2389195,1978,1,209444.25,235585,0.5150000000000001,-0.81,9.96,-0.03,-0.01,-0.0,31.61,0.469705,5.871825988937202,-0.44369953896113784,10.006144362340573,0.03162277660168379,0.1485816838664145,-2.8004040253150234e-05
2429191,2099,1,209444.25,236423,0.52,-0.8,9.96,-0.03,-0.01,-0.0,31.61,0.509701,121.41811673599568,-0.4755130310788988,10.005598432877466,0.03162277660168379,2.8348094469423635,-0.00014199619562017934
2469195,2099,1,209444.25,237513,0.56,-0.79,9.95,-0.03,-0.01,-0.0,31.61,0.549705,116.50836884989553,-0.5017925205745779,9.997009552861295,0.03162277660168379,2.7206673053290342,-0.00023615925192562763
2509192,2099,1,209444.25,237160,0.54,-0.81,9.96,-0.03,-0.01,-0.0,31.61,0.589702,106.37501772433228,-0.5216297404289416,10.007462215766793,0.03162277660168379,2.4850864922151534,-0.00030723876244645167
2549195,2099,1,209444.25,236003,0.53,-0.81,9.95,-0.03,-0.01,-0.0,31.61,0.629705,107.08486335148781,-0.534151970659015,9.996974542330294,0.03162277660168379,2.5015890300191352,-0.00035210765042154187
2589192,2099,1,209444.25,235191,0.53,-0.8,9.98,-0.03,-0.01,-0.0,31.61,0.669702,98.84896944092532,-0.5385399551136612,10.026031119042072,0.03162277660168379,2.3101204269747377,-0.000367830407415669
2629195,2099,1,209444.25,234822,0.5150000000000001,-0.81,9.98,-0.03,-0.01,0.0,31.61,0.709705,99.18180543016467,-0.5340463807018119,10.02605231384716,0.03162277660168379,2.3178582199325644,-0.0003517293069576385
2669172,2099,1,209444.25,234793,0.56,-0.7800000000000002,9.94,-0.03,-0.01,-0.0,31.61,0.749682,96.40838392944812,-0.5200146483213444,9.986270575144657,0.03162277660168379,2.2533815345645727,-0.0003014516633823252
2709195,2099,1,209444.25,234256,0.53,-0.79,9.98,-0.03,-0.01,-0.0,31.61,0.789705,95.72820509412142,-0.49589763738491494,10.025238151784725,0.03162277660168379,2.2375686922872644,-0.0002150370677297154
2749191,2099,1,209444.25,233823,0.54,-0.81,9.96,-0.03,-0.01,0.0,31.61,0.829701,96.5228260081357,-0.46127614132178385,10.007462215766793,0.03162277660168379,2.256042091533101,-9.098344470528442e-05
2789175,2096,1,209444.25,234497,0.58,-0.82,9.94,-0.03,-0.01,-0.0,31.61,0.869685,94.34664258394155,-0.4158766304284611,9.990615596648686,0.03162277660168379,2.2054500362293714,7.168930056210953e-05
2829191,2067,1,209444.25,235682,0.55,-0.82,9.94,-0.03,-0.01,-0.0,31.61,0.909701,67.36924790372083,-0.35958798159820293,9.988918860417277,0.03162277660168379,1.5782777912621644,0.0002733793375787225
2869195,2015,1,209444.25,236455,0.5150000000000001,-0.81,9.97,-0.03,-0.01,-0.0,31.61,0.949705,18.151633704783684,-0.2924768024148196,10.016098292249334,0.03162277660168379,0.4340634608950797,0.0005138480021320806
2909191,1990,1,209444.25,237105,0.5150000000000001,-0.82,9.95,-0.03,-0.01,-0.0,31.61,0.989701,-3.1360690563772504,-0.21480097045267446,9.997005801738837,0.03162277660168379,-0.060834452308549385,0.0007921712831009373
2949195,1973,1,209444.25,237539,0.55,-0.79,9.95,-0.03,-0.01,-0.0,31.61,1.029705,-17.182563944837042,-0.12702100794007054,9.9964543714259,0.03162277660168379,-0.3873882888647061,0.0011066990654584868
2989878,1935,1,209444.25,237960,0.53,-0.82,9.96,-0.03,-0.01,-0.0,31.41,1.070388,-48.960115729968535,-0.029808917719773967,10.007742003069424,0.03162277660168379,-1.1261549017598673,0.0014550234698001
3030196,1919,1,209444.25,238462,0.53,-0.81,9.95,-0.03,-0.01,-0.0,31.41,1.110706,-62.299837130232476,0.07594588088645009,9.996974542330294,0.03162277660168379,-1.4362776218005329,0.0018339575833172808
3070192,1919,1,209444.25,238984,0.53,-0.79,9.94,-0.03,-0.01,-0.0,31.41,1.150702,-55.10244200245813,0.1891338577782818,9.985419370261821,0.03162277660168379,-1.2689521067272835,0.002239525805748609
3110195,1922,1,209444.25,239268,0.55,-0.8,9.97,-0.03,-0.01,-0.0,31.41,1.190705,-48.189542767361296,0.30842623337767267,10.017155284810155,0.03162277660168379,-1.108240570869207,0.0026669669355400783
3150191,1919,1,209444.25,239272,0.5150000000000001,-0.81,9.98,-0.03,-0.01,-0.0,31.41,1.230701,-45.43103861519388,0.43227967447318466,10.02605231384716,0.03162277660168379,-1.0441106850009232,0.0031107509957067634
3190195,1923,1,209444.25,238761,0.53,-0.79,9.98,-0.03,-0.01,-0.0,31.41,1.270705,-35.297853756111344,0.5589450607712243,10.025238151784725,0.03162277660168379,-0.8085337372611161,0.003564610645601969
3229206,1934,1,209444.25,237316,0.55,-0.8,9.96,-0.03,-0.01,-0.0,31.41,1.309716,-20.78955219621349,0.6864805079513601,10.007202406267199,0.03162277660168379,-0.47124378884909524,0.004021587844330971
3269196,1923,1,209444.25,236406,0.53,-0.8,9.98,-0.03,-0.01,-0.0,31.41,1.349706,-24.352006615329742,0.8127687753082986,10.026031119042072,0.03162277660168379,-0.5540639633735319,0.004474096224746966
3309191,1920,1,209444.25,235918,0.54,-0.83,9.95,-0.03,-0.01,-0.0,31.41,1.389701,-25.37088733785756,0.9355391213817843,9.999149963871929,0.03162277660168379,-0.5777509693900948,0.004913999405204782
3349195,1924,1,209444.25,235741,0.57,-0.82,9.95,-0.03,-0.01,-0.0,31.41,1.429705,-14.309615071092752,1.0523935998605116,9.999989999994998,0.03162277660168379,-0.3205977845858298,0.005332705211432311
3389192,1913,1,209444.25,235879,0.53,-0.8,9.95,-0.03,-0.01,-0.0,31.41,1.469702,-23.852423192967258,1.160837711186466,9.996169266273956,0.03162277660168379,-0.5424496151288067,0.005721275505480798
3429195,1899,1,209444.25,236227,0.53,-0.82,9.96,-0.03,-0.01,-0.0,31.41,1.509705,-32.88294424927356,1.2583152435285032,10.007742003069424,0.03162277660168379,-0.752391762294699,0.006070551025766251
3469192,1909,1,209444.25,236427,0.55,-0.81,9.96,-0.03,-0.01,-0.0,31.41,1.549702,-20.654043631732616,1.3422470511383833,10.008006794562043,0.03162277660168379,-0.4680934768339745,0.006371290335298372
3509195,1916,1,209444.25,236587,0.54,-0.82,9.98,-0.03,-0.01,-0.0,31.41,1.589705,-12.61024992297832,1.4100734296963824,10.028180293552765,0.03162277660168379,-0.2810908319095071,0.00661432165842212
3549192,1909,1,209444.25,236682,0.53,-0.8,9.97,-0.03,-0.01,-0.0,31.41,1.629702,-15.717366406241162,1.4592996583854194,10.016077076380753,0.03162277660168379,-0.35332528016819376,0.006790706064386811
3589195,1903,1,209444.25,236977,0.56,-0.8,9.97,-0.03,-0.01,-0.0,31.41,1.669705,-24.55074633226396,1.487544188523402,10.017709319001026,0.03162277660168379,-0.5586842773775809,0.006891910133900454
3629192,1905,1,209444.25,237384,0.54,-0.82,9.97,-0.03,-0.01,-0.0,31.41,1.709702,-19.2517823025148,1.4925888701744563,10.018228386296652,0.03162277660168379,-0.4354936132703874,0.0069099859280451386
3669195,1917,1,209444.25,237991,0.56,-0.83,9.96,-0.03,-0.01,-0.0,31.41,1.749705,-9.940736446785841,1.4724305228950962,10.010199798205829,0.03162277660168379,-0.21902980712636258,0.006837755773414347
3709192,1920,1,209444.25,238604,0.52,-0.79,9.96,-0.03,-0.01,-0.0,31.41,1.789702,-9.2885103734592,1.425333076376637,10.004803846153107,0.03162277660168379,-0.2038668124975918,0.006668999089267583
3749195,1927,1,209444.25,239022,0.53,-0.8,9.96,-0.03,-0.01,-0.0,31.41,1.829705,-0.8446911485902462,1.3498794330015018,10.006123125366788,0.03162277660168379,-0.007564348077591819,0.006398638218263896
3789191,1927,1,209444.25,239215,0.5150000000000001,-0.82,9.94,-0.03,-0.01,-0.0,31.41,1.869701,-9.117633710036685,1.2450221390479357,9.98705286858941,0.03162277660168379,-0.1998942605932458,0.006022919988417382
3829195,1926,1,209444.25,239137,0.55,-0.81,9.96,-0.03,-0.01,-0.0,31.41,1.909705,-9.840397259123863,1.1101318962668563,10.008006794562043,0.03162277660168379,-0.21669711509549394,0.0055395895368064866
3869192,1927,1,209444.25,238657,0.55,-0.8,9.95,-0.03,-0.01,-0.0,31.41,1.949702,-11.108129505817622,0.9450429026087425,9.99724962177098,0.03162277660168379,-0.24616943770488173,0.004948052771688019
3909195,1935,1,209444.25,237948,0.53,-0.8,9.97,-0.03,-0.01,-0.0,31.41,1.989705,-20.079089278629258,0.7500939817458497,10.016077076380753,0.03162277660168379,-0.4547269002366472,0.004249523745280667
3949191,1936,1,209444.25,237520,0.54,-0.79,9.94,-0.03,-0.01,-0.0,31.41,2.029701,1.276700786028794,0.5261644473789857,9.985955137091294,0.03162277660168379,0.04175391107460978,0.003447153160551203
3989195,1916,1,209444.25,237451,0.54,-0.84,9.96,-0.03,-0.01,-0.0,31.41,2.069705,-63.29300957996629,0.27470365165960586,10.009935064724447,0.03162277660168379,-1.459366960201169,0.0025461342473097567
4029878,1835,1,209444.25,237841,0.54,-0.81,9.96,-0.03,-0.01,-0.0,31.49,2.110388,-101.33199308771468,-0.002246811280983831,10.007462215766793,0.03162277660168379,-2.3436997493980662,0.0015537823205349778
4068195,2010,1,209444.25,238528,0.55,-0.8,9.94,-0.03,-0.01,-0.0,31.49,2.148705,15.157135894249304,-0.3020392346318864,9.987296931602664,0.03162277660168379,0.36444717894331685,0.0004795844810153273
4108172,1978,1,209444.25,238256,0.5150000000000001,-0.8,10.000000000000004,-0.03,-0.01,-0.0,31.49,2.188682,25.136236993814542,-0.6214151876210936,10.045159281962635,0.03162277660168379,0.5964419773126992,-0.0006647838617895672
4148195,1983,1,209444.25,237443,0.5150000000000001,-0.81,9.95,-0.03,-0.01,-0.0,31.49,2.228705,-13.624632885671456,-0.9565110079574783,9.99619052439478,0.03162277660168379,-0.30467327370975944,-0.0018654786699304738
4188192,2036,1,209444.25,237675,0.56,-0.83,9.96,-0.03,-0.01,-0.0,31.49,2.268702,55.51818872194206,-1.3028741386509486,10.010199798205829,0.03162277660168379,1.3027635883385997,-0.003106545814061379
4228195,2014,1,209444.25,238267,0.57,-0.85,9.97,-0.03,-0.01,-0.0,31.49,2.308705,21.24703607658866,-1.6554909247525549,10.022389934541561,0.03162277660168379,0.5060255787205309,-0.0043700206730152074
4269192,1936,1,209444.25,238601,0.55,-0.79,10.0,-0.03,-0.01,-0.0,31.49,2.349702,-71.10011373986048,-2.0088263393866312,10.046223170923488,0.03162277660168379,-1.6408670309342261,-0.0056360704776877045
4309195,1950,1,209444.25,238657,0.5150000000000001,-0.8,9.97,-0.03,-0.01,-0.0,31.49,2.389705,-43.158088365945545,-2.356875942219938,10.015294553831156,0.03162277660168379,-0.9912689881870711,-0.0068831804854399565
4349192,1969,1,209444.25,238825,0.54,-0.81,9.96,-0.03,-0.01,-0.0,31.49,2.429702,-54.61470730518985,-2.693230188713282,10.007462215766793,0.03162277660168379,-1.2576132184224604,-0.00808838440906781
4389196,1883,1,209444.25,239071,0.52,-0.82,9.98,-0.03,-0.01,-0.0,31.49,2.469706,-119.42516403344929,-3.01115100680473,10.027123216556182,0.03162277660168379,-2.7643309769543585,-0.009227538801680396
4429192,1982,1,209444.25,239326,0.54,-0.85,9.95,-0.03,-0.01,-0.0,31.49,2.509702,-45.59376181609956,-3.3036603407096807,10.000829965557857,0.03162277660168379,-1.047893684672685,-0.010275640321418434
4469195,2064,1,209444.25,239486,0.52,-0.7800000000000002,9.96,-0.03,-0.01,-0.0,31.49,2.549705,46.397510023003534,-3.5636401310358643,10.00401919230466,0.03162277660168379,1.0907254503700055,-0.011207183974075316
4509192,2069,1,209444.25,239426,0.55,-0.81,9.96,-0.03,-0.01,-0.0,31.49,2.589702,44.32265673813999,-3.7839429589079057,10.008006794562043,0.03162277660168379,1.0424891248066799,-0.011996559566343778
4549195,2079,1,209444.25,238918,0.52,-0.83,9.95,-0.03,-0.01,-0.0,31.49,2.629705,49.4478616046475,-3.957512333234288,9.998089817560151,0.03162277660168379,1.1616402244642423,-0.012618482711779455
4589192,2084,1,209444.25,238507,0.52,-0.82,9.96,-0.03,-0.01,-0.0,31.49,2.669702,61.04642293447161,-4.077511349947164,10.00721739546014,0.03162277660168379,1.4312843407268474,-0.013048455834704497
4629195,2099,1,209444.25,238376,0.54,-0.79,9.96,-0.03,-0.01,-0.0,31.49,2.709705,66.94467042989656,-4.137458205357173,10.00586328109674,0.03162277660168379,1.5684071862398008,-0.013263253733356042
4669192,2099,1,209444.25,238425,0.55,-0.81,9.96,-0.03,-0.01,-0.0,31.49,2.749702,74.93878444666268,-4.131366806237341,10.008006794562043,0.03162277660168379,1.7542548744190807,-0.013241427405322005
4709195,2099,1,209444.25,238412,0.53,-0.83,9.98,-0.03,-0.01,-0.0,31.49,2.789705,72.10406366427196,-4.053890488073862,10.028469474451224,0.03162277660168379,1.6883530993210325,-0.012963819009969959
4749192,2099,1,209444.25,238729,0.54,-0.81,9.96,-0.03,-0.01,-0.0,31.49,2.829702,75.41203077593461,-3.900466631196237,10.007462215766793,0.03162277660168379,1.7652569361922874,-0.01241408004810229
4789195,2099,1,209444.25,239013,0.5150000000000001,-0.81,9.99,-0.03,-0.01,-0.0,31.49,2.869705,79.83299117879979,-3.6674597574610983,10.036006426861235,0.03162277660168379,1.868035714263432,-0.011579184097224485
4829172,2099,1,209444.25,239096,0.54,-0.8,9.97,-0.03,-0.01,-0.0,31.49,2.909682,81.43303402792958,-3.352300509575006,10.016611203396087,0.03162277660168379,1.905233615603705,-0.010449924793737624
4869235,2099,1,209444.25,239182,0.54,-0.83,9.98,-0.03,-0.01,-0.0,31.49,2.949745,87.54083707472807,-2.953617775592493,10.029002941469306,0.03162277660168379,2.0472282223507645,-0.009021389253342975
4909192,2099,1,209444.25,239141,0.55,-0.8,9.96,-0.03,-0.01,-0.0,31.49,2.989702,92.82778494725112,-2.47136113039112,10.007202406267199,0.03162277660168379,2.170139534044847,-0.007293396795831958
4949195,2099,1,209444.25,239145,0.53,-0.81,9.97,-0.03,-0.01,-0.0,31.49,3.029705,96.40103698794017,-1.9069107167694068,10.016880752010579,0.03162277660168379,2.2532107323854222,-0.0052708926643025384
4989192,2099,1,209444.25,239232,0.53,-0.79,9.97,-0.03,-0.01,-0.0,31.49,3.069702,106.13355011613201,-1.2631716630412135,10.015283321004953,0.03162277660168379,2.4794728373861026,-0.002964286336497332
5029196,2099,1,209444.25,239430,0.55,-0.8,9.96,-0.03,-0.01,-0.0,31.49,3.109706,109.04846268045522,-0.5446501222695032,10.007202406267199,0.03162277660168379,2.547238916302169,-0.0003897239839261964
5069930,2099,1,209444.25,239511,0.53,-0.81,9.96,-0.03,-0.01,-0.0,31.53,3.15044,117.9448646947741,0.24249195738304397,10.006927600417622,0.03162277660168379,2.7540630551632126,0.0024307152783698727
5108195,2099,1,209444.25,239610,0.5150000000000001,-0.82,9.96,-0.03,-0.01,-0.0,31.53,3.188705,125.82309403886482,1.0904061081186218,10.006958828735133,0.03162277660168379,2.9372166488541023,0.0054689093015463245
5148191,2002,1,209444.25,239531,0.55,-0.8,9.94,-0.03,-0.01,-0.0,31.53,3.228701,31.46521395118056,1.9895531921041714,9.987296931602664,0.03162277660168379,0.7435784496721751,0.00869067803149566
5188195,1856,1,209444.25,238888,0.55,-0.82,9.98,-0.03,-0.01,-0.0,31.53,3.268705,-100.18244202223379,2.928727988795021,10.028723747317004,0.03162277660168379,-2.3169749106585162,0.012055871608638743
5228191,1835,1,209444.25,238223,0.53,-0.83,9.96,-0.03,-0.01,-0.0,31.53,3.308701,-123.19168193580391,3.8951143061890043,10.008566330898748,0.03162277660168379,-2.851895232751857,0.015518567839193238
5268196,1835,1,209444.25,237683,0.54,-0.81,9.96,-0.03,-0.01,-0.0,31.53,3.348706,-108.20173810688122,4.874372132891494,10.007462215766793,0.03162277660168379,-2.503408033207321,0.019027384473112204
5309192,1835,1,209444.25,237433,0.55,-0.8,9.94,-0.03,-0.01,-0.0,31.53,3.389702,-108.59520182651704,5.850758190652047,9.987296931602664,0.03162277660168379,-2.512555303626954,0.0225259111605457
5349195,1835,1,209444.25,237319,0.55,-0.81,9.93,-0.03,-0.01,-0.0,31.53,3.429705,-98.94463283923854,6.807281004239834,9.978151131346928,0.03162277660168379,-2.2881982414010755,0.025953265088715493
5389192,1835,1,209444.25,237436,0.53,-0.81,9.97,-0.03,-0.01,-0.0,31.53,3.469702,-95.42142562338691,7.7258909782065714,10.016880752010579,0.03162277660168379,-2.2062904884381696,0.029244772053323712
5429195,1835,1,209444.25,237491,0.57,-0.8,9.96,-0.03,-0.01,-0.0,31.53,3.509705,-90.98974083289289,8.587704851928606,10.0083215376006,0.03162277660168379,-2.1032623890984294,0.032332770712104636
5469191,1835,1,209444.25,237584,0.53,-0.81,9.96,-0.03,-0.01,-0.0,31.53,3.549701,-86.54486596523819,9.373262648927142,10.006927600417622,0.03162277660168379,-1.9999276459777675,0.03514753326988261
5509195,1835,1,209444.25,237517,0.54,-0.81,9.96,-0.03,-0.01,-0.0,31.53,3.589705,-84.42981654987861,10.062814556925783,10.007462215766793,0.03162277660168379,-1.9507568381302547,0.03761829340961368
5549192,1835,1,209444.25,237478,0.56,-0.81,9.98,-0.03,-0.01,-0.0,31.53,3.629702,-81.49609325304395,10.63663554122428,10.028464488644312,0.03162277660168379,-1.8825534460681812,0.03967437359574634
5589195,1835,1,209444.25,237470,0.55,-0.82,9.97,-0.03,-0.01,-0.0,31.53,3.669705,-81.47725374116686,11.075366405118327,10.018772379887668,0.03162277660168379,-1.8821154638575899,0.04124640714101691
5629192,1835,1,209444.25,237506,0.55,-0.79,9.96,-0.03,-0.01,-0.0,31.53,3.709702,-78.9911710982634,11.360379935688048,10.00640794691082,0.03162277660168379,-1.8243188511451343,0.04226765015760078
5669195,1835,1,209444.25,237560,0.56,-0.81,9.99,-0.03,-0.01,-0.0,31.53,3.749705,-83.02243681933055,11.474168291654598,10.038416209741456,0.03162277660168379,-1.9180379816360682,0.042675369621540296
5709192,1835,1,209444.25,237645,0.56,-0.8,9.97,-0.03,-0.01,-0.0,31.53,3.789702,-79.73996934558794,11.400743398597381,10.017709319001026,0.03162277660168379,-1.841726962023475,0.04241227804435022
5749195,1858,1,209444.25,237852,0.52,-0.83,9.95,-0.03,-0.01,-0.0,31.53,3.829705,-64.48205938120441,11.126038976100666,9.998089817560151,0.03162277660168379,-1.4870100681461733,0.04142797399205245
5789192,1873,1,209444.25,238009,0.54,-0.81,9.96,-0.03,-0.01,-0.0,31.53,3.869702,-47.45648754610331,10.638304809860191,10.007462215766793,0.03162277660168379,-1.0911984548957774,0.039680354816826684
5829195,1903,1,209444.25,237562,0.56,-0.8,9.97,-0.03,-0.01,-0.0,31.53,3.909705,-25.573228521583797,9.928491430095471,10.017709319001026,0.03162277660168379,-0.5824550105308781,0.03713699501312367
5869191,1913,1,209444.25,236933,0.55,-0.82,9.96,-0.03,-0.01,-0.0,31.53,3.949701,-17.41759854185853,8.990630545933051,10.008821109401447,0.03162277660168379,-0.3928523886269788,0.033776509366833476
5909195,1939,1,209444.25,236719,0.53,-0.8,9.97,-0.03,-0.01,-0.0,31.53,3.989705,1.046449085068343,7.8222138857841115,10.016077076380753,0.03162277660168379,0.0364010043943824,0.029589910392910552
5949191,1967,1,209444.25,236620,0.56,-0.8,9.95,-0.03,-0.01,-0.0,31.53,4.029701,25.8934054894288,6.424556375146856,9.997804759045856,0.03162277660168379,0.6140446802735232,0.024581909651818997
5989195,1984,1,209444.25,236668,0.54,-0.8,9.97,-0.03,-0.01,-0.0,31.53,4.069705,31.24120201526355,4.803108868346027,10.016611203396087,0.03162277660168379,0.7383706054598678,0.018772038310736854
6029191,2002,1,209444.25,236732,0.55,-0.8,9.96,-0.03,-0.01,-0.0,31.53,4.109701,50.97631221338549,2.967682882349399,10.007202406267199,0.03162277660168379,1.1971737446935522,0.012195452395995237
6069195,2015,1,209444.25,236822,0.53,-0.8,9.95,-0.03,-0.01,-0.0,31.53,4.149705,44.53217579559767,0.9325806473310077,9.996169266273956,0.03162277660168379,1.0473600376278311,0.0049033987822867725
6109878,1995,1,209444.25,236989,0.55,-0.81,9.96,-0.03,-0.01,-0.0,31.49,4.190388,31.2114434607276,-1.2833255489501645,10.008006794562043,0.03162277660168379,0.7376787766277465,-0.003036500505419075
6148195,2047,1,209444.25,237115,0.55,-0.79,9.96,-0.03,-0.01,-0.0,31.49,4.228705,62.02108942394117,-3.6564974844415663,10.00640794691082,0.03162277660168379,1.4539434513467144,-0.011539904752329157
6188191,2043,1,209444.25,237271,0.56,-0.79,9.94,-0.03,-0.01,-0.0,31.49,4.268701,60.0987376817575,-6.158602287228173,9.987056623450174,0.03162277660168379,1.4092524916727651,-0.020505293348088083
6228195,2047,1,209444.25,237440,0.53,-0.8,9.95,-0.03,-0.01,-0.0,31.49,4.308705,52.914304072605646,-8.756449325578698,9.996169266273956,0.03162277660168379,1.2422283068365163,-0.029813739655059283
6268192,2059,1,209444.25,237644,0.54,-0.81,9.96,-0.03,-0.01,-0.0,31.49,4.348702,53.20306672455504,-11.41217491793233,10.007462215766793,0.03162277660168379,1.2489414799517309,-0.03932957284983013
6309195,2032,1,209444.25,237788,0.55,-0.79,9.96,-0.03,-0.01,-0.0,31.49,4.389705,31.028443690364508,-14.083786311447618,10.00640794691082,0.03162277660168379,0.7334243859362966,-0.048902327073812306
6347192,2099,1,209444.25,238114,0.55,-0.82,9.96,-0.03,-0.01,-0.0,31.49,4.427702,71.30754879868907,-16.72592788053198,10.008821109401447,0.03162277660168379,1.6698356693646241,-0.058369486828858654
6387195,2099,1,209444.25,238428,0.55,-0.82,9.96,-0.03,-0.01,-0.0,31.49,4.467705,91.44695404704595,-19.290481256550336,10.008821109401447,0.03162277660168379,2.1380378865037404,-0.06755863732525812
6427192,2099,1,209444.25,238539,0.53,-0.81,9.96,-0.03,-0.01,-0.0,31.49,4.507702,51.924414050492,-21.726656994533737,10.006927600417622,0.03162277660168379,1.2192152785289743,-0.07628779293626858
6467195,2074,1,209444.25,238077,0.53,-0.81,9.96,-0.03,-0.01,-0.0,31.49,4.547705,60.37282867786028,-23.980728162537538,10.006927600417622,0.03162277660168379,1.4156245771683713,-0.08436444261183126
6507225,2061,1,209444.25,237411,0.55,-0.81,9.97,-0.03,-0.01,-0.0,31.49,4.587735,-0.9263719290476875,-25.996210354694156,10.017958873942337,0.03162277660168379,-0.009463268231201994,-0.09158619489030975
6547195,1957,1,209444.25,237198,0.54,-0.8,9.99,-0.03,-0.01,-0.0,31.49,4.627705,-64.97192951531109,-27.71542901097563,10.03651832061298,0.03162277660168379,-1.4983986012269948,-0.097746393822615
6587191,2099,1,209444.25,237191,0.5150000000000001,-0.8,9.96,-0.03,-0.01,-0.0,31.49,4.667701,30.860425410007036,-29.08250677947725,10.005339824313815,0.03162277660168379,0.7295182859093512,-0.10264482310566901
6627195,2099,1,209444.25,237232,0.55,-0.81,9.96,-0.03,-0.01,-0.0,31.49,4.707705,64.94336323265848,-30.04621822129004,10.008006794562043,0.03162277660168379,1.5218806649563688,-0.10609793488596228
6667192,2099,1,209444.25,237424,0.55,-0.81,9.97,-0.03,-0.01,-0.0,31.49,4.747702,31.466878050226814,-30.560336560345437,10.017958873942337,0.03162277660168379,0.7436171367561971,-0.10794009221234781
6707233,2099,1,209444.25,237491,0.55,-0.82,9.96,-0.03,-0.01,-0.0,31.49,4.787743,54.92744845126693,-30.580558857734157,10.008821109401447,0.03162277660168379,1.2890300196918283,-0.10801255150909148
6747192,2059,1,209444.25,237591,0.53,-0.79,9.99,-0.03,-0.01,-0.0,31.49,4.827702,-7.765345938334246,-30.060665074369208,10.035193072382812,0.03162277660168379,-0.16845618557994055,-0.10614969996458581
6787195,1950,1,209444.25,237690,0.55,-0.8,9.94,-0.03,-0.01,-0.0,31.49,4.867705,-97.42832369465535,-28.953399676212133,9.987296931602664,0.03162277660168379,-2.2529469867285927,-0.10218221444517028
6827191,1966,1,209444.25,237706,0.55,-0.81,9.96,-0.03,-0.01,-0.0,31.49,4.907701,-100.27099062874099,-27.219728394604488,10.008006794562043,0.03162277660168379,-2.319033494483609,-0.09597022975147977
6867195,1988,1,209444.25,237783,0.54,-0.82,9.95,-0.03,-0.01,-0.0,31.49,4.947705,-59.77292370264625,-24.842582877719423,9.998324859695247,0.03162277660168379,-1.3775317723216365,-0.08745258761122829
6907192,2075,1,209444.25,237901,0.53,-0.82,9.96,-0.03,-0.01,-0.0,31.49,4.987702,14.001338174755695,-21.833091942731922,10.007742003069424,0.03162277660168379,0.3375771175806362,-0.07666916412012287
6947195,2099,1,209444.25,238180,0.52,-0.8,9.92,-0.03,-0.01,-0.0,31.49,5.027705,49.36456939487857,-18.218001877413755,9.965781454557389,0.03162277660168379,1.1597038416960663,-0.06371579493744557
6987192,2083,1,209444.25,238453,0.56,-0.83,9.96,-0.03,-0.01,-0.0,31.49,5.067702,33.3159671065229,-14.011794351669028,10.010199798205829,0.03162277660168379,0.7866048806924852,-0.04864436989533342
7027195,2098,1,209444.25,238652,0.55,-0.81,10.000000000000004,-0.03,-0.01,-0.0,31.49,5.107705,46.09340545545665,-9.197860583931334,10.047815683022856,0.03162277660168379,1.0836556073924328,-0.031395377425494364
7067192,2089,1,209444.25,238647,0.52,-0.81,9.97,-0.03,-0.01,-0.0,31.49,5.147702,52.684643864183606,-3.7490251091351157,10.01635662304413,0.03162277660168379,1.2368891512137055,-0.011871444066867997
7107195,2055,1,209444.25,238297,0.52,-0.8,9.97,-0.03,-0.01,-0.0,31.49,5.187705,4.435010911469018,2.3088087426201955,10.01555290535675,0.03162277660168379,0.11517851249200659,0.00983461495553713
7147878,1985,1,209444.25,237814,0.53,-0.81,9.96,-0.03,-0.01,-0.0,31.55,5.228388,-40.51417526163874,8.835670158756788,10.006927600417622,0.03162277660168379,-0.9298031225324432,0.033221264803761134
7188195,2005,1,209444.25,237590,0.53,-0.82,9.96,-0.03,-0.01,-0.0,31.55,5.268705,-37.90139064906413,15.593767950004015,10.007742003069424,0.03162277660168379,-0.8690609340999321,0.057436466660691035
7228192,1989,1,209444.25,237606,0.53,-0.82,9.96,-0.03,-0.01,-0.0,31.55,5.308702,-30.56087231833914,22.374406469846665,10.007742003069424,0.03162277660168379,-0.698408081395845,0.08173243507498675
7268195,1984,1,209444.25,237630,0.55,-0.8,9.95,-0.03,-0.01,-0.0,31.55,5.348705,-45.22981091215029,29.158904042838092,9.99724962177098,0.03162277660168379,-1.0394325301322482,0.10604223101203526
7308192,1986,1,209444.25,237848,0.55,-0.82,9.95,-0.03,-0.01,-0.0,31.55,5.388702,-31.44841688113199,36.14269872069515,9.998869936147784,0.03162277660168379,-0.7190417757371058,0.13106613612194504
7347195,2028,1,209444.25,238128,0.55,-0.81,9.97,-0.03,-0.01,-0.0,31.55,5.427705,14.854573104866638,43.49835141238368,10.017958873942337,0.03162277660168379,0.35741317932585953,0.15742246007887245
7387192,2032,1,209444.25,238165,0.56,-0.81,9.97,-0.03,-0.01,-0.0,31.55,5.467702,16.723361682812513,50.982067675248146,10.018512863693893,0.03162277660168379,0.4008588990364702,0.1842376535760662
7427195,1995,1,209444.25,238280,0.55,-0.8,9.94,-0.03,-0.01,-0.0,31.55,5.507705,-5.138453509129913,57.750240847014425,9.987296931602664,0.03162277660168379,-0.10738601769900112,0.20848895691903413
7467191,1999,1,209444.25,238384,0.53,-0.81,9.99,-0.03,-0.01,-0.0,31.55,5.547701,-9.858260588511941,62.75415008857889,10.03678733460065,0.03162277660168379,-0.21711240295140852,0.2264186578646427
7507195,1968,1,209444.25,238566,0.53,-0.8,9.95,-0.03,-0.01,-0.0,31.55,5.587705,-25.57249357452672,65.63911430452484,9.996169266273956,0.03162277660168379,-0.5824379244333813,0.2367558848473049
7547191,1984,1,209444.25,238803,0.53,-0.83,9.94,-0.03,-0.01,-0.0,31.55,5.627701,-14.386325824977872,67.41360371159017,9.988663574272586,0.03162277660168379,-0.3223811612349668,0.24311412654672557
7587195,1993,1,209444.25,239241,0.55,-0.8,9.97,-0.03,-0.01,-0.0,31.55,5.667705,2.018330753434994,69.91923027043717,10.017155284810155,0.03162277660168379,0.05899537331018018,0.25209213408298037
7627192,1978,1,209444.25,239448,0.5150000000000001,-0.8599999999999999,10.000000000000004,-0.03,-0.01,-0.0,31.55,5.707702,-11.074536896471665,73.90482035946934,10.050115670976133,0.03162277660168379,-0.24538847451449414,0.26637305624570656
7667195,1987,1,209444.25,239966,0.54,-0.8,9.919999999999998,-0.03,-0.01,-0.0,31.55,5.747705,-0.4538107140333315,77.0589513963579,9.966845037422823,0.03162277660168379,0.0015228659607065594,0.2776747452861323
7707191,1989,1,209444.25,240977,0.59,-0.7800000000000002,9.919999999999998,-0.03,-0.01,-0.0,31.55,5.787701,4.343231215719166,74.36398776837407,9.968094100679426,0.03162277660168379,0.11304481209179541,0.2680183167666703
7747195,1977,1,209444.25,240912,0.52,-0.84,9.97,-0.03,-0.01,-0.0,31.55,5.827705,-5.471168502588877,62.02236986246538,10.018827276682636,0.03162277660168379,-0.11512099773897141,0.22379658780327144
7787172,1974,1,209444.25,240032,0.5150000000000001,-0.79,9.98,-0.03,-0.01,-0.0,31.55,5.867682,-9.257702877004453,42.86057120406244,10.024456344361026,0.03162277660168379,-0.20315059779478697,0.15513720512076043
7827195,1955,1,209444.25,238817,0.53,-0.8,10.000000000000004,-0.03,-0.01,-0.0,31.55,5.907705,-24.558467735043838,28.025610327312453,10.045939478217061,0.03162277660168379,-0.5588637850569974,0.10198148242088788
7867192,1964,1,209444.25,238756,0.58,-0.8,9.93,-0.03,-0.01,0.0,31.55,5.947702,-17.686587730593303,30.779659700912696,9.97904304029199,0.03162277660168379,-0.39910586696951067,0.11184962336315936
7907175,1964,1,209444.25,239214,0.57,-0.83,9.94,-0.03,-0.01,-0.0,31.55,5.987685,-16.44470753162803,54.595218194378646,9.99086582834541,0.03162277660168379,-0.370234554465178,0.19718407309570282
7947191,1934,1,209526.0,239580,0.55,-0.8,9.95,-0.03,-0.01,-0.0,31.55,6.027701,-45.927853163491925,84.97552069813875,9.99724962177098,0.03162277660168379,-1.0556606622793778,0.3060409112663406
7987195,1939,1,209648.0,239406,0.56,-0.83,9.96,-0.03,-0.01,-0.0,31.55,6.067705,-44.76957155098501,94.28361260076619,10.010199798205829,0.03162277660168379,-1.0287328552086377,0.33939309575483706
8027192,1947,1,209535.0,239072,0.57,-0.81,9.96,-0.03,-0.01,-0.0,31.55,6.107702,-32.35424158389265,58.79673883444397,10.009125835955906,0.03162277660168379,-0.7401004479740392,0.21223870437626952
8067195,1959,1,209484.0,238949,0.55,-0.81,9.98,-0.03,-0.01,-0.0,31.55,6.147705,-29.241392165595208,-23.80960751519744,10.027911048668113,0.03162277660168379,-0.6677327200647961,-0.08375129359487034
8107191,1968,1,209444.25,238780,0.57,-0.82,9.96,-0.03,-0.01,-0.0,31.55,6.187701,-12.404580512461646,-129.05657878451046,10.009940059760599,0.03162277660168379,-0.2763094159335086,-0.460865791319025
8147208,1979,1,209444.25,237983,0.56,-0.81,9.97,-0.03,-0.01,-0.0,31.55,6.227718,-14.008428924876048,-216.0577972852925,10.018512863693893,0.03162277660168379,-0.3135957892591926,-0.7726032258562803
8187879,1971,1,209444.25,236914,0.54,-0.8,9.99,-0.03,-0.01,-0.0,31.57,6.268389,-12.737000317672232,-248.81165948576285,10.03651832061298,0.03162277660168379,-0.2840375334176755,-0.8899648576760647
8228195,2014,1,209444.25,237771,0.56,-0.8,9.95,-0.03,-0.01,-0.0,31.57,6.308705,17.347116158277235,-218.4270224344168,9.997804759045856,0.03162277660168379,0.4153599840864796,-0.7810924882201461
8268192,2023,1,209444.25,239042,0.57,-0.81,9.97,-0.03,-0.01,-0.0,31.57,6.348702,33.2571196931789,-152.20124164759662,10.019076803777882,0.03162277660168379,0.7852367921585496,-0.5437963289425102
8308195,2039,1,209893.0,239669,0.54,-0.8,9.95,-0.03,-0.01,-0.0,31.57,6.388705,39.627391822332044,-97.57385951530775,9.996704456969805,0.03162277660168379,0.9333332973863968,-0.348058840952581
8348223,2032,1,209953.0,239176,0.56,-0.7800000000000002,9.97,-0.03,-0.01,-0.0,31.57,6.428733,35.95777162910382,-86.75784559342628,10.016131987948242,0.03162277660168379,0.8480217259005356,-0.30930356269292936
8388195,2027,1,209694.0,238534,0.57,-0.79,9.95,-0.03,-0.01,-0.0,31.57,6.468705,22.946387955983617,-110.52773598756765,9.997574705897424,0.03162277660168379,0.545532222924791,-0.3944743772905981
8428195,2025,1,209761.0,238817,0.55,-0.83,9.96,-0.03,-0.01,-0.0,31.57,6.508705,25.908761884233183,-126.9163934190668,10.00964534836275,0.03162277660168379,0.614401686749435,-0.4531972102720642
8468195,2046,1,210090.0,239518,0.55,-0.8,9.97,-0.03,-0.01,-0.0,31.57,6.548705,33.680204374224196,-96.71711656232583,10.017155284810155,0.03162277660168379,0.7950726926362544,-0.3449890121062407
8508192,2047,1,210247.0,239975,0.54,-0.8,9.95,-0.03,-0.01,-0.0,31.57,6.588702,48.01902202645033,-11.673596364430537,9.996704456969805,0.03162277660168379,1.1284224680211807,-0.04026628215653527
8548219,2067,1,210381.0,240198,0.53,-0.8,9.98,-0.03,-0.01,-0.0,31.57,6.628729,45.931827090397455,105.112993939817,10.026031119042072,0.03162277660168379,1.0798992229396895,0.37819627132451006
8588192,2032,1,210506.0,240330,0.54,-0.83,9.98,-0.03,-0.01,-0.0,31.57,6.668702,32.036267270718284,215.8789768125815,10.029002941469306,0.03162277660168379,0.7568543347847223,0.7750861532109662
8628195,2064,1,210660.0,240683,0.56,-0.8,9.97,-0.03,-0.01,-0.0,31.57,6.708705,38.54621468648655,283.1367162352781,10.017709319001026,0.03162277660168379,0.9081980202577796,1.0160799634323505
8668192,2025,1,210862.0,240923,0.58,-0.82,9.93,-0.03,-0.01,0.0,31.57,6.748702,20.067866848021527,279.84177777124694,9.980666310422366,0.03162277660168379,0.47861217497851144,1.0042737418479257
8708175,2013,1,210848.0,241195,0.54,-0.82,9.94,-0.03,-0.01,-0.0,31.57,6.788685,-11.931703477162607,201.31912292000723,9.988373240923668,0.03162277660168379,-0.26531593953086036,0.7229161769977299
8748172,1995,1,210799.0,241417,0.54,-0.82,9.97,-0.03,-0.01,-0.0,31.57,6.828682,-16.293117303555825,75.60247153050699,10.018228386296652,0.03162277660168379,-0.36671037487770874,0.2724559758865813
8788195,2013,1,210833.0,241333,0.55,-0.81,9.96,-0.03,-0.01,-0.0,31.57,6.868705,-10.827281416775627,-42.377020695614924,10.008006794562043,0.03162277660168379,-0.2396402628684265,-0.15028091065769958
8828192,2001,1,210772.0,241198,0.54,-0.79,9.97,-0.03,-0.01,-0.0,31.57,6.908702,-13.141655263764463,-99.93472029597224,10.015817490349951,0.03162277660168379,-0.2934449782056565,-0.35651813262396553
8868195,2000,1,210870.0,241417,0.54,-0.79,9.94,-0.03,-0.01,-0.0,31.57,6.948705,-25.787815146408803,-83.95737413984757,9.985955137091294,0.03162277660168379,-0.587443734491317,-0.29926908499850946
8908192,1978,1,211109.0,241998,0.57,-0.81,9.96,-0.03,-0.01,-0.0,31.57,6.988702,-34.035091213884144,-36.30238995171858,10.009125835955906,0.03162277660168379,-0.7791769506678656,-0.12851466604071918
8948195,1977,1,211259.0,242361,0.53,-0.82,9.96,-0.03,-0.01,-0.0,31.57,7.028705,-52.79307424181593,-28.420868691101447,10.007742003069424,0.03162277660168379,-1.2152637732145304,-0.10027408205380027
8988192,1971,1,211294.0,241868,0.53,-0.82,9.96,-0.03,-0.01,-0.0,31.57,7.068702,-36.9493889765621,-109.32596555363338,10.007742003069424,0.03162277660168379,-0.8469287366348672,-0.39016826711842817
9026201,2080,1,211103.0,241357,0.55,-0.8,9.97,-0.03,-0.01,-0.0,31.57,7.106711,47.60069985383959,-266.66316408874883,10.017155284810155,0.03162277660168379,1.1186972866526406,-0.9539292749964361
9066191,2073,1,211056.0,241059,0.55,-0.82,9.95,-0.03,-0.01,-0.0,31.57,7.146701,68.2046210336059,-431.90931154465255,9.998869936147784,0.03162277660168379,1.5976986007015368,-1.5460291439724707
9106195,2071,1,211096.0,241039,0.54,-0.82,9.96,-0.03,-0.01,-0.0,31.57,7.186705,38.606487330578375,-523.939345424439,10.008276574915383,0.03162277660168379,0.9095992426498327,-1.8757855216007158
9146192,2064,1,211278.0,241173,0.55,-0.7800000000000002,9.97,-0.03,-0.01,-0.0,31.57,7.226702,61.095565712456114,-495.73651732017487,10.01557786650376,0.03162277660168379,1.4324268152599817,-1.774730876258714
9186195,2069,1,211459.0,241476,0.56,-0.81,9.96,-0.03,-0.01,-0.0,31.57,7.266705,39.137401315852955,-352.70106752120506,10.008561335177,0.03162277660168379,0.9219419658807485,-1.2622150180145861
9226878,1985,1,211807.0,241961,0.55,-0.83,9.96,-0.03,-0.01,-0.0,31.47,7.307388,-18.41439176990714,-138.53648375268614,10.00964534836275,0.03162277660168379,-0.41602590311990023,-0.49483360585497316
9267195,2005,1,212099.0,242202,0.55,-0.8,9.95,-0.03,-0.01,-0.0,31.47,7.347705,-18.102851250271513,92.56012702344262,9.99724962177098,0.03162277660168379,-0.40878318863934354,0.3332176078525385
9307191,1998,1,212275.0,242542,0.55,-0.79,9.97,-0.03,-0.01,-0.0,31.47,7.387701,-10.316778097435426,297.29660166824834,10.01636161487793,0.03162277660168379,-0.2277720481409106,1.066816797171937
9347195,1997,1,212645.0,243112,0.55,-0.81,9.96,-0.03,-0.01,-0.0,31.47,7.427705,-15.076644722143541,451.54352940476684,10.008006794562043,0.03162277660168379,-0.3384297403364954,1.6195049361018927
9387192,1998,1,212877.0,243478,0.55,-0.83,9.96,-0.03,-0.01,-0.0,31.47,7.467702,-17.51832484261719,549.3321838682447,10.00964534836275,0.03162277660168379,-0.3951940802885671,1.9698952501067553
9427195,1983,1,212887.0,243544,0.58,-0.82,9.96,-0.03,-0.01,-0.0,31.47,7.507705,-18.663436242854747,595.7516455852274,10.01051447229362,0.03162277660168379,-0.42181570539868524,2.1362226206610244
9467192,2000,1,212904.0,243741,0.55,-0.81,9.96,-0.03,-0.01,-0.0,31.47,7.547702,-19.272101706860678,594.0942393745044,10.008006794562043,0.03162277660168379,-0.43596600011837844,2.1302839042956636
9507195,1974,1,212927.0,243893,0.53,-0.81,9.95,-0.03,-0.01,-0.0,31.47,7.587705,-23.52621494436549,533.9973939203252,9.996974542330294,0.03162277660168379,-0.5348659043210172,1.9149485705095133
9547195,2000,1,212891.0,243929,0.55,-0.8,9.94,-0.03,-0.01,-0.0,31.47,7.627705,-16.271296543524375,394.8502294715825,9.987296931602664,0.03162277660168379,-0.3662030844140433,1.416364978051039
9587195,1984,1,212810.0,243303,0.54,-0.82,9.96,-0.03,-0.01,-0.0,31.47,7.667705,-16.26039417583723,169.4812309546569,10.008276574915383,0.03162277660168379,-0.36594962545335213,0.6088365935920861
9627192,1985,1,212472.0,242295,0.56,-0.83,9.97,-0.03,-0.01,-0.0,31.47,7.707702,-24.30521550203194,-109.91666945809878,10.020149699480543,0.03162277660168379,-0.5529761604956278,-0.3922848411494865
9667195,1984,1,212181.0,241580,0.54,-0.81,9.98,-0.03,-0.01,-0.0,31.47,7.747705,-20.973226283856377,-371.6950013604739,10.027367550858003,0.03162277660168379,-0.47551385611299424,-1.3302729177642407
9707192,1989,1,212085.0,241221,0.53,-0.81,9.95,-0.03,-0.01,-0.0,31.47,7.787702,-15.34246060236852,-538.6347134964717,9.996974542330294,0.03162277660168379,-0.3446094453941845,-1.9284410639172291
9747195,1991,1,212139.0,241213,0.56,-0.81,9.94,-0.03,-0.01,-0.0,31.47,7.827705,-15.593886853575338,-571.8390113779454,9.988658568596685,0.03162277660168379,-0.35045461941051315,-2.0474166692656577
9787192,1987,1,212199.0,241627,0.55,-0.81,9.95,-0.03,-0.01,-0.0,31.47,7.867702,-17.39887305783662,-489.7907696245618,9.99805481081195,0.03162277660168379,-0.39241705734346055,-1.7534264374821518
9827195,2006,1,212422.0,242142,0.55,-0.79,9.97,-0.03,-0.01,-0.0,31.47,7.907705,0.9641594232150112,-348.6353601897279,10.01636161487793,0.03162277660168379,0.03448792892605389,-1.2476470246584632
9867192,2015,1,212528.0,242387,0.54,-0.8,9.96,-0.03,-0.01,-0.0,31.47,7.947702,8.186948067565847,-201.05510927378265,10.006657783695815,0.03162277660168379,0.2024037941419941,-0.7188465135657636
9907195,2005,1,212677.0,242757,0.54,-0.81,9.96,-0.03,-0.01,-0.0,31.47,7.987705,0.37424485626982523,-65.46739160619211,10.007462215766793,0.03162277660168379,0.020773556293876377,-0.2330169126840654
9947192,2012,1,212802.0,243136,0.56,-0.81,9.95,-0.03,-0.01,-0.0,31.47,8.027702,4.8725716900571205,73.83289046352375,9.998609903381569,0.03162277660168379,0.125350954237017,0.26611532145055067
9987198,1999,1,212992.0,243630,0.57,-0.81,9.97,-0.03,-0.01,-0.0,31.47,8.067708,-8.956805217575978,239.45335184757488,10.019076803777882,0.03162277660168379,-0.19615530922796712,0.8595564091552769
10027192,1997,1,213167.0,244115,0.55,-0.79,9.96,-0.03,-0.01,-0.0,31.47,8.107702,-8.462616955681044,429.0271465711485,10.00640794691082,0.03162277660168379,-0.18466638802845892,1.5388256129778402
10067195,2001,1,213364.0,244420,0.55,-0.81,9.96,-0.03,-0.01,-0.0,31.47,8.147705,-10.872426001425346,602.0482975692579,10.008006794562043,0.03162277660168379,-0.24068978714008032,2.1587843981797836
10107195,1963,1,213426.0,244574,0.54,-0.82,9.95,-0.03,-0.01,-0.0,31.47,8.187705,-43.226679804977735,694.5865824907229,9.998324859695247,0.03162277660168379,-0.9928636064707591,2.4903619097940117
10147195,1979,1,213330.0,244549,0.55,-0.82,9.96,-0.03,-0.01,-0.0,31.47,8.227705,-33.33276489955235,653.3025526282291,10.008821109401447,0.03162277660168379,-0.7628492223427147,2.3424355039520344
10187195,1978,1,213199.0,244265,0.54,-0.79,9.95,-0.03,-0.01,-0.0,31.47,8.267705,-32.7399909851871,469.3599869702913,9.995909163252735,0.03162277660168379,-0.7490683754137475,1.683343775025379
10227882,1974,1,212927.0,243460,0.55,-0.82,9.98,-0.03,-0.01,-0.0,31.67,8.308392,-36.78493212605862,192.29412548468298,10.028723747317004,0.03162277660168379,-0.843105432963289,0.6905783592559244
10266192,2032,1,212573.0,242653,0.56,-0.81,9.97,-0.03,-0.01,-0.0,31.67,8.346702,16.78924141842865,-87.43330742367976,10.018512863693893,0.03162277660168379,0.40239047546087975,-0.31172383612954985
10306195,2038,1,212328.0,242248,0.53,-0.81,9.94,-0.03,-0.01,-0.0,31.67,8.386705,27.166445440556775,-281.92471567270405,9.987021578028155,0.03162277660168379,0.6436403967445158,-1.008613531376103
10346195,2035,1,212244.0,242180,0.56,-0.82,9.96,-0.03,-0.01,-0.0,31.67,8.426705,17.516166444495035,-351.4173773265748,10.009375604901637,0.03162277660168379,0.4192900762535079,-1.2576153779760841
10386195,2058,1,212313.0,242300,0.56,-0.8,9.95,-0.03,-0.01,-0.0,31.67,8.466705,45.9230528960931,-321.4408713717222,9.997804759045856,0.03162277660168379,1.0796952398937032,-1.1502053988540961
10426192,2057,1,212384.0,242600,0.55,-0.83,9.96,-0.03,-0.01,-0.0,31.67,8.506702,37.769575586033945,-258.1369925511243,10.00964534836275,0.03162277660168379,0.890142663395714,-0.9233788196422994
10466195,2043,1,212394.0,242888,0.55,-0.81,9.95,-0.03,-0.01,-0.0,31.67,8.546705,30.32681445714853,-219.6745833016837,9.99805481081195,0.03162277660168379,0.7171128633987508,-0.7855626718669114
10506192,2068,1,212311.0,243120,0.54,-0.82,9.96,-0.03,-0.01,-0.0,31.67,8.586702,47.02390710657089,-220.39297182665422,10.008276574915383,0.03162277660168379,1.1052879709469048,-0.7881367576054151
10546195,2054,1,212240.0,243118,0.54,-0.81,9.95,-0.03,-0.01,-0.0,31.67,8.626705,40.79495775595639,-232.2432312076724,9.997509689917784,0.03162277660168379,0.9604769469648083,-0.8305978808137808
10586192,2060,1,212331.0,243257,0.55,-0.8,9.94,-0.03,-0.01,-0.0,31.67,8.666702,38.31992767210062,-216.3622083033847,9.987296931602664,0.03162277660168379,0.9029372848716675,-0.7736939727614409
10626195,2046,1,212410.0,243314,0.56,-0.8,9.98,-0.03,-0.01,-0.0,31.67,8.706705,31.982426095172283,-156.02003024890814,10.027661741403127,0.03162277660168379,0.7556026315962149,-0.5574795782363379
10666191,2047,1,212434.0,243435,0.55,-0.8,9.95,-0.03,-0.01,-0.0,31.67,8.746701,24.881295955884074,-67.97407459939313,9.99724962177098,0.03162277660168379,0.5905150913035639,-0.24199870557115732
10706195,2047,1,212511.0,243464,0.54,-0.81,9.95,-0.03,-0.01,-0.0,31.67,8.786705,33.28983981309946,9.177829639886344,9.997509689917784,0.03162277660168379,0.7859974716574198,0.034447269688382
10746192,2039,1,212479.0,243537,0.56,-0.82,9.97,-0.03,-0.01,-0.0,31.67,8.826702,15.554478852980958,36.75436918377254,10.01932632465876,0.03162277660168379,0.3736846341684633,0.13325783624095253
10786195,2014,1,212495.0,243479,0.54,-0.8,9.96,-0.03,-0.01,-0.0,31.67,8.866705,1.4313400340773677,-4.4101093190119,10.006657783695815,0.03162277660168379,0.0453489744789263,-0.014240200495241752
10826192,2034,1,212444.0,243035,0.53,-0.8,9.96,-0.03,-0.01,-0.0,31.67,8.906702,10.020791264481112,-103.14052143594023,10.006123125366788,0.03162277660168379,0.2450371013371638,-0.3680049628113065
10866196,2017,1,212245.0,242527,0.54,-0.82,9.97,-0.03,-0.01,-0.0,31.67,8.946706,3.549211282218671,-220.12199249277612,10.018228386296652,0.03162277660168379,0.09458538448045041,-0.7871658010623753
10906192,2013,1,212151.0,242387,0.52,-0.82,9.96,-0.03,-0.01,-0.0,31.67,8.986702,-8.352648924732238,-304.61979398163913,10.00721739546014,0.03162277660168379,-0.18210984401587668,-1.0899331451765228
10946195,2000,1,212184.0,242413,0.54,-0.81,9.96,-0.03,-0.01,-0.0,31.67,9.026705,-17.52427832600386,-319.09868682455965,10.007462215766793,0.03162277660168379,-0.39533248726171083,-1.141813026718082
10986192,2000,1,212268.0,242588,0.54,-0.82,9.95,-0.03,-0.01,-0.0,31.67,9.066702,-16.81471290632613,-257.6934747972948,9.998324859695247,0.03162277660168379,-0.3788364637395929,-0.9217896340063616
11026198,2017,1,212401.0,242872,0.55,-0.81,9.97,-0.03,-0.01,-0.0,31.67,9.106708,-4.847837938286649,-147.52086153622298,10.017958873942337,0.03162277660168379,-0.10062976780353476,-0.5270258777497411
11066192,2023,1,212464.0,243102,0.54,-0.81,9.96,-0.03,-0.01,-0.0,31.67,9.146702,8.30422012108098,-33.42324671213358,10.007462215766793,0.03162277660168379,0.20513014255135056,-0.1181982964238334
11106195,2032,1,212550.0,243443,0.55,-0.81,9.97,-0.03,-0.01,-0.0,31.67,9.186705,9.390353814298873,44.55154644395678,10.017958873942337,0.03162277660168379,0.2303806500515958,0.16119620397427584
11146192,2018,1,212687.0,243738,0.57,-0.81,9.94,-0.03,-0.01,-0.0,31.67,9.226702,0.4955800244927876,70.80288982981115,9.989224194100359,0.03162277660168379,0.023594364261061682,0.25525840886384554
11186195,2032,1,212660.0,244152,0.55,-0.81,9.97,-0.03,-0.01,-0.0,31.67,9.266705,11.916883477276382,62.67853355777357,10.017958873942337,0.03162277660168379,0.28911757774564106,0.2261477133453812
11226195,2019,1,212676.0,244525,0.53,-0.8,9.96,-0.03,-0.01,-0.0,31.67,9.306705,-3.490871035760634,61.28680307401877,10.006123125366788,0.03162277660168379,-0.06908291204924606,0.22116094996379576
11266882,1971,1,212689.0,244885,0.55,-0.81,9.96,-0.03,-0.01,-0.0,31.77,9.347392,-48.11105995896948,105.05221084667548,10.008006794562043,0.03162277660168379,-1.1064159973804069,0.3779784770700651
11307195,1969,1,212821.0,245193,0.55,-0.82,9.98,-0.03,-0.01,-0.0,31.77,9.387705,-55.698165149201465,199.96418257516774,10.028723747317004,0.03162277660168379,-1.282801517604453,0.7180612377873384
11347195,1973,1,212984.0,245524,0.57,-0.82,9.96,-0.03,-0.01,-0.0,31.77,9.427705,-50.08483564961579,308.77555480919193,10.009940059760599,0.03162277660168379,-1.1523024643887259,1.1079474786151968
11387195,1984,1,213093.0,245513,0.55,-0.81,9.97,-0.03,-0.01,-0.0,31.77,9.467705,-39.89993029871997,371.5526081536145,10.017958873942337,0.03162277660168379,-0.9155231152552391,1.3328863690655968
11427195,1998,1,213099.0,245124,0.55,-0.81,9.98,-0.03,-0.01,-0.0,31.77,9.507705,-30.810800967274595,345.9465022070442,10.027911048668113,0.03162277660168379,-0.7042184390561196,1.241136139427132
11467195,1991,1,212960.0,244689,0.53,-0.81,9.97,-0.03,-0.01,-0.0,31.77,9.547705,-34.6226335134005,237.87094560403546,10.016880752010579,0.03162277660168379,-0.7928361726709094,0.8538864280761925
11507195,1993,1,212838.0,244501,0.54,-0.8,9.96,-0.03,-0.01,-0.0,31.77,9.587705,-37.259660398988004,99.11234974463777,10.006657783695815,0.03162277660168379,-0.8541419470600643,0.3566951307748609
11547192,1998,1,212765.0,244418,0.54,-0.82,9.96,-0.03,-0.01,-0.0,31.77,9.627702,-35.8228074883079,-6.155286433546907,10.008276574915383,0.03162277660168379,-0.8207378961366586,-0.020493412184378987
11587195,1999,1,212768.0,244331,0.54,-0.81,9.98,-0.03,-0.01,-0.0,31.77,9.667705,-27.921796606466398,-40.725864730343766,10.027367550858003,0.03162277660168379,-0.637054675758525,-0.14436458978881556
11627220,1993,1,212838.0,244370,0.53,-0.82,9.95,-0.03,-0.01,-0.0,31.77,9.70773,-51.41436249687869,-12.233526201515117,9.997789755741016,0.03162277660168379,-1.1832113919344018,-0.04227258843524608
11667195,1991,1,212897.0,244420,0.57,-0.83,9.94,-0.03,-0.01,-0.0,31.77,9.747705,-34.99213659525863,39.40813444097173,9.99086582834541,0.03162277660168379,-0.8014264046083608,0.14276664528293093
11705192,2099,1,212941.0,244478,0.53,-0.82,9.98,-0.03,-0.01,-0.0,31.77,9.785702,50.347764270000816,71.99435556787384,10.027646782770123,0.03162277660168379,1.1825612207862264,0.2595275958812591
11745195,2099,1,212939.0,244532,0.55,-0.8,9.96,-0.03,-0.01,-0.0,31.77,9.825705,65.04561187868651,66.51216463628194,10.007202406267199,0.03162277660168379,1.5242577482008555,0.23988414529392624
11785192,2090,1,212932.0,244655,0.56,-0.81,9.96,-0.03,-0.01,-0.0,31.77,9.865702,45.94889252420909,33.639012193487716,10.008561335177,0.03162277660168379,1.0802959612667908,0.12209507998817239
11825212,2099,1,212904.0,244626,0.55,-0.81,9.99,-0.03,-0.01,-0.0,31.77,9.905722,51.68999996005794,1.5173464665513805,10.037863318455775,0.03162277660168379,1.213765604344637,0.0069986958301918745
11865192,2082,1,212958.0,244732,0.54,-0.81,9.96,-0.03,-0.01,-0.0,31.77,9.945702,43.90491499988209,-4.354775241725658,10.007462215766793,0.03162277660168379,1.0327774374141312,-0.014041930820483758
11905195,2080,1,212923.0,244769,0.56,-0.81,9.98,-0.03,-0.01,-0.0,31.77,9.985705,23.72996572041652,23.244065857854718,10.028464488644312,0.03162277660168379,0.5637488903032047,0.08484854529976978
11945192,2025,1,213014.0,244871,0.55,-0.81,9.96,-0.03,-0.01,-0.0,31.77,10.025702,-13.681653743998734,69.4802358568327,10.008006794562043,0.03162277660168379,-0.30599889837259225,0.2505191562025383
11985195,2037,1,213088.0,244941,0.56,-0.81,9.96,-0.03,-0.01,-0.0,31.77,10.065705,-19.270374723148663,106.01892166231156,10.008561335177,0.03162277660168379,-0.43592585108751297,0.38144233602283484
12025201,2032,1,213064.0,245060,0.57,-0.82,9.98,-0.03,-0.01,-0.0,31.77,10.105711,-13.174378351909297,106.31411805503677,10.029840477295739,0.03162277660168379,-0.2942057267099998,0.38250006564706973
12065195,1995,1,212967.0,244949,0.58,-0.83,9.96,-0.03,-0.01,-0.0,31.77,10.145705,-56.456987699133094,59.08146976068319,10.011338571839433,0.03162277660168379,-1.3004426741287816,0.21325893478233482
12105192,1970,1,212967.0,244462,0.57,-0.81,9.95,-0.03,-0.01,-0.0,31.77,10.185702,-80.93294728455334,-26.432377875584844,9.999174965965942,0.03162277660168379,-1.869461391572591,-0.09314904362201706
12145195,2003,1,212845.0,244089,0.55,-0.81,9.94,-0.03,-0.01,-0.0,31.77,10.225705,-45.018377055545024,-124.52840045214509,9.988102922977916,0.03162277660168379,-1.0345171019346386,-0.44464070021359314
12185195,2064,1,212729.0,243846,0.55,-0.81,9.96,-0.03,-0.01,-0.0,31.77,10.265705,12.83231783227855,-203.88961774733576,10.008006794562043,0.03162277660168379,0.31039965580960477,-0.7290029506243044
12225195,2099,1,212723.0,243731,0.57,-0.82,9.96,-0.03,-0.01,-0.0,31.77,10.305705,51.02334104551487,-240.9749964732002,10.009940059760599,0.03162277660168379,1.1982670740744799,-0.8618850070145787
12265195,2099,1,212676.0,243717,0.56,-0.84,9.97,-0.03,-0.01,-0.0,31.77,10.345705,52.874110011814416,-230.21230373259883,10.020982985715523,0.03162277660168379,1.2412938726689624,-0.8233207859440697
12305882,2093,1,212773.0,243958,0.57,-0.83,9.95,-0.03,-0.01,-0.0,31.63,10.386392,44.00923980478278,-185.18106414377888,10.000814966791456,0.03162277660168379,1.0352027873365721,-0.661967607846627
12346195,2089,1,212810.0,244152,0.56,-0.83,9.97,-0.03,-0.01,-0.0,31.63,10.426705,49.69464386174111,-129.54910081069386,10.020149699480543,0.03162277660168379,1.16737743460014,-0.4626305660605894
12386195,2099,1,212830.0,244362,0.56,-0.83,9.96,-0.03,-0.01,-0.0,31.63,10.466705,51.84233786967254,-83.6307327548151,10.010199798205829,0.03162277660168379,1.2173071660817552,-0.2980986836048462
12426195,2082,1,212814.0,244491,0.57,-0.83,9.95,-0.03,-0.01,-0.0,31.63,10.506705,47.72486231586614,-55.4042756786138,10.000814966791456,0.03162277660168379,1.1215838237320324,-0.1969593723786264
12466195,2089,1,212869.0,244572,0.58,-0.83,9.97,-0.03,-0.01,-0.0,31.63,10.546705,48.692203989848345,-40.42181594498101,10.021287342452565,0.03162277660168379,1.1440726465599302,-0.14327514081377274
12506192,2065,1,212843.0,244674,0.57,-0.81,9.95,-0.03,-0.01,-0.0,31.63,10.586702,33.41849271240241,-27.898892542996414,9.999174965965942,0.03162277660168379,0.788988402717806,-0.09840376910756908
12546195,2047,1,212821.0,244738,0.54,-0.8,9.97,-0.03,-0.01,-0.0,31.63,10.626705,16.714188926643256,-7.241451143611578,10.016611203396087,0.03162277660168379,0.40064565019804815,-0.024385291011310803
12586192,2032,1,212898.0,244805,0.57,-0.83,9.98,-0.03,-0.01,-0.0,31.63,10.666702,3.8716510360233785,28.323598462576367,10.030662989055111,0.03162277660168379,0.10208148507346428,0.10304921524590432
12626195,2014,1,212924.0,244814,0.56,-0.8,9.95,-0.03,-0.01,-0.0,31.63,10.706705,-7.235624269118142,80.21153649829719,9.997804759045856,0.03162277660168379,-0.15614118139113273,0.28897089502718554
12666192,2029,1,212921.0,244905,0.55,-0.82,9.96,-0.03,-0.01,-0.0,31.63,10.746702,7.927554742143488,142.40815388588203,10.008821109401447,0.03162277660168379,0.19637340106056259,0.5118300029272277
12706195,2027,1,212973.0,245013,0.56,-0.81,9.96,-0.03,-0.01,-0.0,31.63,10.786705,12.344727656912744,198.8063842815406,10.008561335177,0.03162277660168379,0.2990641273594711,0.7139126858936233
12746195,2022,1,212960.0,245045,0.57,-0.83,9.96,-0.03,-0.01,-0.0,31.63,10.826705,10.130008399140463,224.61007205995602,10.010764206592823,0.03162277660168379,0.24757618846344634,0.8063708786437771
12786195,2027,1,212986.0,244966,0.56,-0.81,9.98,-0.03,-0.01,-0.0,31.63,10.866705,19.02284873150594,196.4735233959578,10.028464488644312,0.03162277660168379,0.45431752510829937,0.7055537217304105
12826195,2001,1,212874.0,244381,0.56,-0.8,9.95,-0.03,-0.01,-0.0,31.63,10.906705,-3.2813843032206673,107.96676140734932,9.997804759045856,0.03162277660168379,-0.06421275071990673,0.38842171603005066
12866195,1975,1,212638.0,243768,0.56,-0.81,9.96,-0.03,-0.01,-0.0,31.63,10.946705,-24.054914081677246,-21.54049108447923,10.008561335177,0.03162277660168379,-0.5471571366208936,-0.07562073465595077
12906195,1974,1,212507.0,243352,0.56,-0.81,9.96,-0.03,-0.01,-0.0,31.63,10.986705,-25.403926785211254,-153.90173637298932,10.008561335177,0.03162277660168379,-0.5785190726341225,-0.5498894374330917
12946195,1956,1,212430.0,243132,0.57,-0.83,9.98,-0.03,-0.01,-0.0,31.63,11.026705,-33.29663143585365,-251.1673786282542,10.030662989055111,0.03162277660168379,-0.7620091892033036,-0.8984057261446362
12986192,1975,1,212355.0,243155,0.56,-0.83,9.95,-0.03,-0.01,-0.0,31.63,11.066702,-20.43160527672603,-292.49547884191463,10.000249996875077,0.03162277660168379,-0.4629222153341168,-1.0464900421682017
13026198,1975,1,212337.0,243203,0.57,-0.8,9.97,-0.03,-0.01,-0.0,31.63,11.106708,-6.432805709385119,-278.4569683800545,10.018273304317466,0.03162277660168379,-0.13747720273872935,-0.9961881117870157
13066192,1975,1,212394.0,243287,0.55,-0.82,9.94,-0.03,-0.01,-0.0,31.63,11.146702,-15.624794116770586,-223.80434094972514,9.988918860417277,0.03162277660168379,-0.3511731534970596,-0.8003601663922263
13106195,1968,1,212436.0,243167,0.56,-0.84,9.96,-0.03,-0.01,-0.0,31.63,11.186705,-9.315057027220211,-147.32656473571595,10.011033912638595,0.03162277660168379,-0.20448397084935319,-0.5263296853610296
13146195,1971,1,212463.0,243156,0.57,-0.83,9.98,-0.03,-0.01,-0.0,31.63,11.226705,-13.164447579872355,-65.79698943062839,10.030662989055111,0.03162277660168379,-0.2939748554688553,-0.23419790741022434
13186195,1943,1,212530.0,243247,0.57,-0.8,9.95,-0.03,-0.01,-0.0,31.63,11.266705,-34.6393009042824,7.79405023891066,9.998369867133341,0.03162277660168379,-0.7932236572698137,0.029488996139353702
13226192,1951,1,212592.0,243467,0.56,-0.81,9.96,-0.03,-0.01,-0.0,31.63,11.306702,-25.819172555914975,66.02916121837656,10.008561335177,0.03162277660168379,-0.5881727336088916,0.23815347704622583
13266247,1943,1,212641.0,243598,0.56,-0.81,9.97,-0.03,-0.01,-0.0,31.63,11.346757,-37.57969128393072,110.54548939459644,10.018512863693893,0.03162277660168379,-0.8615820461114202,0.3976616561247588
13306882,1914,1,212627.0,243792,0.56,-0.83,9.98,-0.03,-0.01,-0.0,31.49,11.387392,-57.97903051575295,152.35790240274184,10.030099700401786,0.03162277660168379,-1.3358272255856933,0.5474813320739438
13345195,1958,1,212642.0,243958,0.57,-0.82,9.95,-0.03,-0.01,-0.0,31.49,11.425705,-24.558813823736507,203.21732548386382,9.999989999994998,0.03162277660168379,-0.5588718309496759,0.7297177000991951
13385192,1959,1,212662.0,244059,0.54,-0.8,9.96,-0.03,-0.01,-0.0,31.49,11.465702,-13.371547209688353,261.0720141403256,10.006657783695815,0.03162277660168379,-0.29878952127714437,0.937019075051259
13425195,1950,1,212699.0,244097,0.55,-0.82,9.94,-0.03,-0.01,-0.0,31.49,11.505705,-32.95974261664302,302.8321560904775,9.988918860417277,0.03162277660168379,-0.7541771757878795,1.0866514565487082
13465217,1947,1,212713.0,244153,0.57,-0.83,9.96,-0.03,-0.01,-0.0,31.49,11.545727,-29.289633649062687,295.68767936892914,10.010764206592823,0.03162277660168379,-0.6688542412437494,1.061051805386735
13505195,1959,1,212673.0,243754,0.56,-0.83,9.94,-0.03,-0.01,-0.0,31.49,11.585705,-25.82878141421661,222.0996116473191,9.990300295786907,0.03162277660168379,-0.5883961209783557,0.7973755507388497
13545192,1963,1,212428.0,243236,0.57,-0.84,9.97,-0.03,-0.01,-0.0,31.49,11.625702,-17.382731823177895,97.91315434266653,10.021546786798933,0.03162277660168379,-0.3920418048590211,0.35239824729941827
13585195,1998,1,212237.0,242879,0.55,-0.82,9.95,-0.03,-0.01,-0.0,31.49,11.665705,7.877359686485869,-34.12702978278666,9.998869936147784,0.03162277660168379,0.19520646310690898,-0.12072004879347599
13625192,2003,1,212171.0,242726,0.56,-0.82,9.97,-0.03,-0.01,-0.0,31.49,11.705702,18.905871130773033,-131.37142355089293,10.01932632465876,0.03162277660168379,0.4515980221565809,-0.4691602012279802
13665195,2007,1,212172.0,242683,0.56,-0.8,9.96,-0.03,-0.01,-0.0,31.49,11.745705,9.689046890687973,-175.50713529561511,10.00775699145418,0.03162277660168379,0.23732468632699125,-0.6273045788340459
13705192,2007,1,212113.0,242722,0.57,-0.82,9.97,-0.03,-0.01,-0.0,31.49,11.785702,17.355833880632005,-174.94458286501273,10.019890218959487,0.03162277660168379,0.4155626542688694,-0.6252888754389594
13745195,2036,1,212149.0,242695,0.57,-0.82,9.96,-0.03,-0.01,-0.0,31.49,11.825705,32.63299172402021,-148.54779542613025,10.009940059760599,0.03162277660168379,0.77072702410259,-0.5307055243316585
13785192,2026,1,212123.0,242659,0.58,-0.81,9.94,-0.03,-0.01,-0.0,31.49,11.865702,27.11083834468414,-109.729470724379,9.989799797793747,0.03162277660168379,0.6423476393241665,-0.3916140821187046
13825195,2032,1,212138.0,242687,0.57,-0.81,9.95,-0.03,-0.01,-0.0,31.49,11.905705,24.630036355260987,-64.38842995638612,9.999174965965942,0.03162277660168379,0.5846737915909611,-0.2291508434212357
13865195,2026,1,212182.0,242832,0.57,-0.81,9.94,-0.03,-0.01,-0.0,31.49,11.945705,15.786778333023367,-18.350704880580118,9.989224194100359,0.03162277660168379,0.379085147751405,-0.06419128820610707
13905195,2017,1,212234.0,243060,0.59,-0.8,9.94,-0.03,-0.01,-0.0,31.49,11.985705,4.890117284720951,19.974215200734204,9.989579570732694,0.03162277660168379,0.125758855375175,0.07313221680764015
13945192,2031,1,212296.0,243117,0.58,-0.82,9.94,-0.03,-0.01,-0.0,31.49,12.025702,11.61667392313329,47.98705844375476,9.990615596648686,0.03162277660168379,0.28213828629573046,0.17350612003745547
13985195,2032,1,212270.0,243125,0.56,-0.81,9.95,-0.03,-0.01,-0.0,31.49,12.065705,11.216945025412155,77.9500215212403,9.998609903381569,0.03162277660168379,0.2728453626041096,0.28086757315119415
14025201,2042,1,212273.0,243090,0.56,-0.81,9.93,-0.03,-0.01,-0.0,31.49,12.105711,17.72281429372885,130.55855237940537,9.978707331112583,0.03162277660168379,0.4240942390371232,0.4693712369746035
14065195,2055,1,212330.0,243256,0.58,-0.81,9.97,-0.03,-0.01,-0.0,31.49,12.145705,22.20539831887056,211.26814199188706,10.019650692514187,0.03162277660168379,0.5283056471299696,0.7585648924418954
14105193,2038,1,212419.0,243354,0.55,-0.81,9.94,-0.03,-0.01,-0.0,31.49,12.185703,11.173484361188159,289.1359949660078,9.988102922977916,0.03162277660168379,0.2718349862252106,1.0375762113334621
14145195,2057,1,212428.0,243523,0.55,-0.8,9.96,-0.03,-0.01,-0.0,31.49,12.225705,12.127527992436935,303.1433696239837,10.007202406267199,0.03162277660168379,0.29401465528145415,1.0877665778102297
14185191,2033,1,212391.0,243100,0.56,-0.82,9.97,-0.03,-0.01,-0.0,31.49,12.265701,3.397325830609352,200.44702360145808,10.01932632465876,0.03162277660168379,0.09105434151678289,0.7197913241633555
14225195,2060,1,212133.0,242170,0.55,-0.82,9.97,-0.03,-0.01,-0.0,31.49,12.305705,5.003456195333292,-19.160612286472034,10.018772379887668,0.03162277660168379,0.12839376581977016,-0.06709329879028297
14265192,2053,1,211802.0,241436,0.57,-0.82,9.96,-0.03,-0.01,-0.0,31.49,12.345702,19.606122280379463,-290.00668556833347,10.009940059760599,0.03162277660168379,0.4678775069157793,-1.0375723506281367
14305195,2046,1,211537.0,240913,0.52,-0.82,9.98,-0.03,-0.01,-0.0,31.49,12.385705,-16.322401424161086,-514.7532217241251,10.027123216556182,0.03162277660168379,-0.367391174038621,-1.842870366100313
14345882,2015,1,211426.0,240618,0.58,-0.81,9.97,-0.03,-0.01,-0.0,31.39,12.426392,-24.19394881780023,-623.2922653577915,10.019650692514187,0.03162277660168379,-0.5503894253061538,-2.231780815776167
14384195,2099,1,211498.0,240559,0.57,-0.81,9.98,-0.03,-0.01,-0.0,31.39,12.464705,33.77749274251988,-610.9217492156254,10.029027869140657,0.03162277660168379,0.7973344590179405,-2.1874555404235476
14424192,2099,1,211619.0,240790,0.56,-0.81,9.93,-0.03,-0.01,-0.0,31.39,12.504702,50.849441828834216,-526.5565549301937,9.978707331112583,0.03162277660168379,1.1942242536532919,-1.8851633463143218
14464195,2099,1,211691.0,241016,0.58,-0.81,9.96,-0.03,-0.01,-0.0,31.39,12.544705,35.10345298945085,-423.9825509455735,10.009700295213639,0.03162277660168379,0.8281604700046383,-1.517626461160325
14504192,2081,1,211770.0,241194,0.56,-0.8,9.94,-0.03,-0.01,-0.0,31.39,12.584702,23.150480811427485,-319.80712774546356,9.987852622060458,0.03162277660168379,0.5502769870448172,-1.1443514688113017
14544195,2073,1,211855.0,241330,0.6,-0.8,9.93,-0.03,-0.01,-0.0,31.39,12.624705,10.388433610805544,-193.12028252678513,9.980225448355363,0.03162277660168379,0.25358407477260675,-0.6904149286267047
14584191,2074,1,211952.0,241565,0.58,-0.82,9.96,-0.03,-0.01,-0.0,31.39,12.664701,10.585564039999774,-22.238273384384247,10.01051447229362,0.03162277660168379,0.25816697594948507,-0.07812098543158721
14624195,2077,1,212304.0,242157,0.57,-0.8,9.94,-0.03,-0.01,-0.0,31.39,12.704705,11.721220558023079,180.08664339981198,9.988418293203383,0.03162277660168379,0.28456879333634066,0.6468372575463779
14664192,2068,1,212497.0,242556,0.59,-0.8,9.95,-0.03,-0.01,-0.0,31.39,12.744702,4.639086021984428,368.26214725225896,9.99952998895448,0.03162277660168379,0.11992286407676954,1.3210961912093577
14704195,2045,1,212660.0,242862,0.58,-0.81,9.98,-0.03,-0.01,-0.0,31.39,12.784705,-25.62794155673091,500.01783103228064,10.029601188482022,0.03162277660168379,-0.5837269827687067,1.7931950830992065
14744195,2019,1,212614.0,243042,0.55,-0.83,9.98,-0.03,-0.01,-0.0,31.39,12.824705,-42.44115101077229,570.0593793775321,10.029546350658139,0.03162277660168379,-0.9746015814239364,2.0441636668549563
14784195,2054,1,212672.0,243223,0.57,-0.81,9.97,-0.03,-0.01,-0.0,31.39,12.864705,-19.953486428815328,606.965304276701,10.019076803777882,0.03162277660168379,-0.451806876927286,2.1764027152906755
14824195,2035,1,212682.0,243359,0.57,-0.8,9.96,-0.03,-0.01,-0.0,31.39,12.904705,-26.9632205648092,636.3341526639664,10.0083215376006,0.03162277660168379,-0.6147696369271546,2.2816353730548586
14864195,2037,1,212763.0,243440,0.55,-0.81,9.97,-0.03,-0.01,-0.0,31.39,12.944705,-35.86995390450956,646.9619309493096,10.017958873942337,0.03162277660168379,-0.8218339591198284,2.3197161769170926
14904233,2055,1,212748.0,243519,0.58,-0.79,9.96,-0.03,-0.01,-0.0,31.39,12.984743,-10.19951432702342,594.2340869030776,10.008101718108184,0.03162277660168379,-0.22504589229768016,2.1307849973899335
14944195,2059,1,212608.0,243050,0.55,-0.81,9.97,-0.03,-0.01,-0.0,31.39,13.024705,-9.946913641624487,439.7824930342695,10.017958873942337,0.03162277660168379,-0.2191734149580482,1.5773635113170752
14984195,2055,1,212321.0,242201,0.57,-0.83,9.98,-0.03,-0.01,-0.0,31.39,13.064705,-13.9045468436536,192.69068060957406,10.030662989055111,0.03162277660168379,-0.3111807318059273,0.6919992712778064
15024218,2069,1,212024.0,241633,0.56,-0.8,9.96,-0.03,-0.01,-0.0,31.39,13.104728,4.579447637950073,-84.26185585186013,10.00775699145418,0.03162277660168379,0.11853638700422753,-0.30036008520979335
15064192,2080,1,211814.0,241225,0.54,-0.82,9.98,-0.03,-0.01,-0.0,31.39,13.144702,8.790268693359167,-309.532806879361,10.028180293552765,0.03162277660168379,0.21642983171156124,-1.1075371519131696
15104243,2062,1,211752.0,241081,0.58,-0.8,9.96,-0.03,-0.01,-0.0,31.39,13.184753,0.9474748972269116,-431.0439825654316,10.008896043020929,0.03162277660168379,0.03410004596907427,-1.5429285502030783
15144192,2064,1,211740.0,241236,0.56,-0.79,9.97,-0.03,-0.01,-0.0,31.39,13.224702,-6.137282982183906,-451.16270451510184,10.016915692966574,0.03162277660168379,-0.13060687094966647,-1.6150167217808382
15184195,2057,1,211819.0,241431,0.56,-0.83,9.97,-0.03,-0.01,-0.0,31.39,13.264705,-3.9003875727671793,-413.1524659149079,10.020149699480543,0.03162277660168379,-0.07860337942239456,-1.4788207641659814
15224195,2064,1,211839.0,241505,0.55,-0.82,9.96,-0.03,-0.01,-0.0,31.39,13.304705,0.06342765993509057,-364.19791961838905,10.008821109401447,0.03162277660168379,0.013547657680968743,-1.3034098339009657
15264195,2065,1,211941.0,241588,0.57,-0.82,9.98,-0.03,-0.01,-0.0,31.39,13.344705,0.7064859946313954,-325.0283818251967,10.029840477295739,0.03162277660168379,0.02849752011939215,-1.1630599464617446
15304192,2064,1,211952.0,241704,0.55,-0.81,9.97,-0.03,-0.01,-0.0,31.39,13.384702,9.69219106832452,-287.0052489509359,10.017958873942337,0.03162277660168379,0.23739778237537784,-1.026817786874236
15344195,2060,1,212022.0,241766,0.55,-0.83,9.96,-0.03,-0.01,-0.0,31.39,13.424705,-6.681300439436408,-234.18907631955733,10.00964534836275,0.03162277660168379,-0.1432542245585218,-0.8375701137737183
15384879,2001,1,212100.0,241969,0.56,-0.81,9.96,-0.03,-0.01,-0.0,31.27,13.465389,-46.966756878190935,-168.3212973522721,10.008561335177,0.03162277660168379,-1.0798131641342092,-0.6015567246768299
15425195,1988,1,212240.0,242169,0.56,-0.82,9.97,-0.03,-0.01,-0.0,31.27,13.505705,-71.95655701397762,-113.04053237356669,10.01932632465876,0.03162277660168379,-1.660777680471816,-0.40347807531212393
15465195,1996,1,212263.0,242374,0.57,-0.82,9.98,-0.03,-0.01,-0.0,31.27,13.545705,-55.94691887269025,-91.82354342448303,10.029840477295739,0.03162277660168379,-1.288584560520706,-0.3274546607258882
15505195,2001,1,212300.0,242596,0.57,-0.83,9.96,-0.03,-0.01,-0.0,31.27,13.585705,-39.025002546403094,-98.5541808435675,10.010764206592823,0.03162277660168379,-0.8951827373533282,-0.3515714682601066
15545195,2006,1,212318.0,242718,0.57,-0.83,9.93,-0.03,-0.01,-0.0,31.27,13.625705,-58.8263788588582,-89.67947736000299,9.980916791557778,0.03162277660168379,-1.3555264355692354,-0.3197721745959567
15585195,1957,1,212414.0,242836,0.56,-0.82,9.96,-0.03,-0.01,-0.0,31.27,13.665705,-57.3859590379916,-11.918659594783552,10.009375604901637,0.03162277660168379,-1.3220394608833324,-0.04114437770561053
15625195,1968,1,212483.0,242959,0.57,-0.83,9.96,-0.03,-0.01,-0.0,31.27,13.705705,-105.29801315696547,150.86071670733844,10.010764206592823,0.03162277660168379,-2.4359020446864514,0.5421167080404684
15665195,1879,1,212857.0,243126,0.57,-0.84,9.95,-0.03,-0.01,-0.0,31.27,13.745705,-119.85067976123656,349.38331938878156,10.001649863897455,0.03162277660168379,-2.774223394566533,1.2534507321382529
15705195,2099,1,213041.0,243313,0.56,-0.81,9.94,-0.03,-0.01,-0.0,31.27,13.785705,35.70323185425843,488.4443626436575,9.988658568596685,0.03162277660168379,0.8421041684819806,1.7517257404125293
15745195,2099,1,213048.0,243194,0.57,-0.82,9.95,-0.03,-0.01,-0.0,31.27,13.825705,98.30928872621901,486.38663979711856,9.999989999994998,0.03162277660168379,2.297573894241685,1.7443526340098532
15785195,2099,1,212949.0,242445,0.57,-0.82,9.93,-0.03,-0.01,-0.0,31.27,13.865705,62.00000284833602,331.39185045047594,9.980090179953285,0.03162277660168379,1.4534532292508553,1.1889848031888361
15825195,2099,1,212573.0,241835,0.57,-0.83,9.96,-0.03,-0.01,-0.0,31.27,13.905705,90.08639787184686,90.80581975041392,10.010764206592823,0.03162277660168379,2.106407587102396,0.3269316815389996
15865195,2099,1,212449.0,241577,0.56,-0.82,9.98,-0.03,-0.01,-0.0,31.27,13.945705,88.76148366438856,-133.02443017456497,10.029277142446508,0.03162277660168379,2.0756058945101237,-0.4750831532626345
15905195,2099,1,212430.0,241422,0.59,-0.83,9.96,-0.03,-0.01,-0.0,31.27,13.985705,90.37758863743296,-264.89771656682984,10.011922892232041,0.03162277660168379,2.113177209163056,-0.9476034316257684
15945195,2099,1,212379.0,241397,0.58,-0.84,9.94,-0.03,-0.01,-0.0,31.27,14.025705,106.13292183390598,-291.60547753499606,9.99227701777728,0.03162277660168379,2.47945823103961,-1.0433010440261687
15985195,2099,1,212478.0,241627,0.58,-0.82,9.94,-0.03,-0.01,-0.0,31.27,14.065705,101.69071214812118,-251.46760370796378,9.990615596648686,0.03162277660168379,2.3761854482422633,-0.8994814742519063
16025201,2099,1,212519.0,241858,0.59,-0.82,9.96,-0.03,-0.01,-0.0,31.27,14.105711,117.11810235962679,-196.21617885880454,10.01109884078666,0.03162277660168379,2.734842430045961,-0.7015079546413732
16065195,2097,1,212582.0,242043,0.59,-0.82,9.96,-0.03,-0.01,-0.0,31.27,14.145705,115.41913463768793,-157.13789237445235,10.01109884078666,0.03162277660168379,2.695344716759494,-0.5614850332999399
16105195,2064,1,212627.0,242308,0.58,-0.82,9.95,-0.03,-0.01,-0.0,31.27,14.185705,92.91976332661088,-135.476659494597,10.00056498403965,0.03162277660168379,2.172277853454682,-0.48386983108504855
16145195,2029,1,212677.0,242619,0.58,-0.81,9.93,-0.03,-0.01,-0.0,31.27,14.225705,62.488869570025734,-115.15940648618489,9.979849698267003,0.03162277660168379,1.464818434933845,-0.4110702951839532
16185195,1974,1,212721.0,242883,0.57,-0.83,9.97,-0.03,-0.01,-0.0,31.27,14.265705,15.522481149134318,-81.75113483624625,10.020713547447608,0.03162277660168379,0.3729407494459698,-0.29136382352824913
16225195,1936,1,212810.0,243094,0.59,-0.84,9.97,-0.03,-0.01,-0.0,31.27,14.305705,-16.95405704964432,-32.29796395071666,10.0227042259063,0.03162277660168379,-0.38207594554366703,-0.11416625219252234
16265195,1918,1,212891.0,243181,0.58,-0.82,9.96,-0.03,-0.01,-0.0,31.27,14.345705,-27.07641201286339,27.973499948595663,10.01051447229362,0.03162277660168379,-0.6174011191525041,0.10179476370528975
16305195,1920,1,212959.0,243414,0.59,-0.84,9.96,-0.03,-0.01,-0.0,31.27,14.385705,-20.50246577091756,94.33884164982373,10.012756863122165,0.03162277660168379,-0.46456958476131244,0.3395909890988823
16344192,1914,1,213055.0,243566,0.58,-0.81,9.95,-0.03,-0.01,-0.0,31.27,14.424702,-18.097777160011294,165.4217200989099,9.999749996874922,0.03162277660168379,-0.40866522585541315,0.594290803068068
16384195,1876,1,213124.0,243727,0.58,-0.83,9.94,-0.03,-0.01,-0.0,31.27,14.464705,-52.911692836511634,236.11202296618947,9.99144133746478,0.03162277660168379,-1.2180214261017717,0.8475839642702784
16424879,1835,1,213106.0,243908,0.57,-0.83,9.95,-0.03,-0.01,-0.0,31.41,14.505389,-85.70600948277625,288.22913878178446,10.000814966791456,0.03162277660168379,-1.9804258553286993,1.0343268198279687
16465195,1835,1,213214.0,244053,0.58,-0.82,9.98,-0.03,-0.01,-0.0,31.41,14.545705,-82.91576374026222,292.28859727445996,10.03041375018997,0.03162277660168379,-1.915558038881407,1.0488724227278379
16505192,1835,1,213221.0,243615,0.58,-0.82,9.96,-0.03,-0.01,-0.0,31.41,14.585702,-76.6918397542927,225.62459560667875,10.01051447229362,0.03162277660168379,-1.770863844906935,0.8100060572445243
16545196,1835,1,212987.0,242789,0.57,-0.81,9.96,-0.03,-0.01,-0.0,31.41,14.625706,-73.17120157243868,94.76766995824157,10.009125835955906,0.03162277660168379,-1.6890158170152885,0.34112754041421733
16585195,1835,1,212805.0,242189,0.58,-0.82,9.96,-0.03,-0.01,-0.0,31.41,14.665705,-69.30597376878421,-59.102212174026995,10.01051447229362,0.03162277660168379,-1.5991567469433745,-0.21020959181263854
16625195,1835,1,212722.0,241959,0.58,-0.79,9.96,-0.03,-0.01,-0.0,31.41,14.705705,-66.62524114252176,-180.63579465603232,10.008101718108184,0.03162277660168379,-1.536834898621878,-0.6456812767606107
16665195,1835,1,212660.0,241907,0.57,-0.8,9.97,-0.03,-0.01,-0.0,31.41,14.745705,-62.207771910919476,-232.53446925592993,10.018273304317466,0.03162277660168379,-1.434137283529756,-0.8316414271406938
16705195,1835,1,212678.0,242052,0.57,-0.84,9.96,-0.03,-0.01,-0.0,31.41,14.785705,-64.29464603891454,-214.8213021502431,10.01159827400201,0.03162277660168379,-1.4826530704444298,-0.7681726922630682
16745210,1835,1,212748.0,242273,0.57,-0.83,9.95,-0.03,-0.01,-0.0,31.41,14.82572,-56.02249506477491,-158.200018651698,10.000814966791456,0.03162277660168379,-1.290341560802522,-0.5652907790875141
16783195,1861,1,212785.0,242349,0.57,-0.82,9.95,-0.03,-0.01,-0.0,31.41,14.863705,-38.444841197648316,-99.6195891585644,9.999989999994998,0.03162277660168379,-0.8816951081787988,-0.35538897404422165
16823195,1860,1,212786.0,242414,0.58,-0.83,9.95,-0.03,-0.01,-0.0,31.41,14.903705,-28.50798745445351,-59.92373156589429,10.001389903408425,0.03162277660168379,-0.6506824791275753,-0.21315320975335755
16863195,1882,1,212782.0,242390,0.59,-0.83,9.95,-0.03,-0.01,-0.0,31.41,14.943705,-17.276070479589045,-38.08145202094008,10.001974805007258,0.03162277660168379,-0.38956213493155833,-0.13488929222295667
16903195,1893,1,212795.0,242495,0.59,-0.81,9.99,-0.03,-0.01,-0.0,31.41,14.983705,1.4980110351786375,-20.784696427583942,10.040134461251004,0.03162277660168379,0.04689894629535052,-0.07291261755785078
16943195,1919,1,212792.0,242496,0.57,-0.82,9.94,-0.03,-0.01,-0.0,31.41,15.023705,20.670078630950112,5.378490333070413,9.9900400399598,0.03162277660168379,0.49261243409626604,0.020833709914702448
16983192,1923,1,212870.0,242612,0.58,-0.84,9.96,-0.03,-0.01,-0.0,31.41,15.063702,24.680908070982756,49.78130749638628,10.01217259140093,0.03162277660168379,0.5858564605822685,0.17993516328796147
17023205,1930,1,212918.0,242719,0.57,-0.83,9.98,-0.03,-0.01,-0.0,31.41,15.103715,30.569598759383005,119.946845105215,10.030662989055111,0.03162277660168379,0.7227571288172656,0.4313480177746713
17063195,1942,1,212964.0,242796,0.59,-0.83,9.95,-0.03,-0.01,-0.0,31.41,15.143705,37.043023664363794,219.53351944265683,10.001974805007258,0.03162277660168379,0.8732517365586168,0.7881808864059556
17103195,1937,1,212986.0,242877,0.57,-0.81,9.94,-0.03,-0.01,-0.0,31.41,15.183705,31.499658348067285,336.9865219802813,9.989224194100359,0.03162277660168379,0.7443792152753055,1.2090312873626694
17143192,1947,1,213110.0,243079,0.59,-0.8,9.96,-0.03,-0.01,-0.0,31.41,15.223702,37.4094444268331,435.1756433183984,10.0094805060003,0.03162277660168379,0.881770310532291,1.5608565297313926
17183195,1945,1,213135.0,243098,0.58,-0.83,9.96,-0.03,-0.01,-0.0,31.41,15.263705,29.803865566684067,459.77930076190586,10.011338571839433,0.03162277660168379,0.7049553132155905,1.649014847325571
17223192,1937,1,213134.0,242562,0.57,-0.81,9.96,-0.03,-0.01,-0.0,31.41,15.303702,21.811801528863683,370.3608978451095,10.009125835955906,0.03162277660168379,0.5191552830816026,1.3286163057183618
17263195,1962,1,212764.0,241553,0.58,-0.81,9.94,-0.03,-0.01,-0.0,31.41,15.343705,38.48218798997065,173.46380005224447,9.989799797793747,0.03162277660168379,0.9067095234081874,0.6231066911233999
17303195,1968,1,212472.0,240828,0.6,-0.83,9.95,-0.03,-0.01,-0.0,31.41,15.383705,42.52662387558156,-71.32478175635876,10.002569669839845,0.03162277660168379,1.0007348347502159,-0.2540047541184969
17343195,1957,1,212279.0,240510,0.58,-0.82,9.98,-0.03,-0.01,-0.0,31.41,15.423705,28.85710486808674,-280.96447856123064,10.03041375018997,0.03162277660168379,0.6829449582563936,-1.0051728686033685
17384195,1921,1,212205.0,240313,0.59,-0.82,9.95,-0.03,-0.01,-0.0,31.41,15.464705,-17.819492244927176,-393.082652554036,10.001149933882603,0.03162277660168379,-0.40219563985562873,-1.4069078388463951
17424881,1898,1,212133.0,240396,0.58,-0.82,9.97,-0.03,-0.01,-0.0,31.39,15.505391,-34.72620495698903,-393.971772383087,10.020464061110143,0.03162277660168379,-0.7952440084000407,-1.410093678530952
17463195,1968,1,212204.0,240676,0.59,-0.81,9.97,-0.03,-0.01,-0.0,31.39,15.543705,18.485865717776974,-316.1672495222317,10.02023452819344,0.03162277660168379,0.4418337087049099,-1.131309280220252
17503195,1967,1,212300.0,240960,0.57,-0.82,9.95,-0.03,-0.01,-0.0,31.39,15.583705,25.622178006368355,-213.8813169125949,9.999989999994998,0.03162277660168379,0.607739165917367,-0.764804594763552
17543195,1965,1,212307.0,241133,0.58,-0.81,9.96,-0.03,-0.01,-0.0,31.39,15.623705,9.656139424640466,-134.74535151167984,10.009700295213639,0.03162277660168379,0.23655965139304605,-0.4812494531365586
17583195,1978,1,212396.0,241305,0.57,-0.84,9.96,-0.03,-0.01,-0.0,31.39,15.663705,25.496287226469374,-102.15559830854723,10.01159827400201,0.03162277660168379,0.6048124487904605,-0.36447584661913335
17623195,1973,1,212317.0,241313,0.57,-0.82,9.96,-0.03,-0.01,-0.0,31.39,15.703705,13.474966085902985,-112.33249814920285,10.009940059760599,0.03162277660168379,0.3253399846563114,-0.40094109046902343
17663195,1961,1,212273.0,241200,0.57,-0.83,9.97,-0.03,-0.01,-0.0,31.39,15.743705,-0.8226027096783669,-141.9069794225021,10.020713547447608,0.03162277660168379,-0.0070508345977174525,-0.5069105593888815
17703195,1967,1,212276.0,241197,0.58,-0.84,9.95,-0.03,-0.01,-0.0,31.39,15.783705,2.2798263616562284,-159.0992421053758,10.00222475252381,0.03162277660168379,0.06507464040031992,-0.5685128214606646
17743195,1965,1,212329.0,241494,0.58,-0.8,9.96,-0.03,-0.01,-0.0,31.39,15.823705,-3.0721053672850167,-134.2980543332512,10.008896043020929,0.03162277660168379,-0.05934742025968467,-0.47964672529800717
17783192,1962,1,212332.0,241793,0.57,-0.81,9.95,-0.03,-0.01,-0.0,31.39,15.863702,-8.23570864764472,-50.559184441993565,9.999174965965942,0.03162277660168379,-0.1793912087667198,-0.17959873837567444
17823195,1963,1,212507.0,242028,0.58,-0.8,9.98,-0.03,-0.01,-0.0,31.39,15.903705,-9.34583180334548,84.84223603947066,10.028798532227079,0.03162277660168379,-0.2051994248677873,0.3055633338453302
17863192,1975,1,212603.0,242275,0.57,-0.84,9.95,-0.03,-0.01,-0.0,31.39,15.943702,0.11157650658624356,232.6583095173078,10.001649863897455,0.03162277660168379,0.01466702523312624,0.8352088298901603
17903195,1983,1,212694.0,242464,0.57,-0.81,9.96,-0.03,-0.01,-0.0,31.39,15.983705,8.000059544837125,328.4758930219904,10.009125835955906,0.03162277660168379,0.19805899747990893,1.178536523226323
17943195,1978,1,212733.0,242465,0.6,-0.81,9.95,-0.03,-0.01,-0.0,31.39,16.023705,-0.8378090811071222,310.37072490669124,10.00092995675902,0.03162277660168379,-0.007404353320330425,1.1136631943535977
17983195,1969,1,212630.0,241731,0.57,-0.83,9.95,-0.03,-0.01,-0.0,31.39,16.063705,-6.559254437008213,157.32622613112906,10.000814966791456,0.03162277660168379,-0.14041689107100436,0.5652835251894813
18023204,1982,1,212331.0,240593,0.58,-0.83,9.97,-0.03,-0.01,-0.0,31.39,16.103714,-0.34452980716725523,-87.2890083809734,10.021287342452565,0.03162277660168379,0.004063435667443289,-0.31120679264263523
18063195,1984,1,212024.0,240011,0.57,-0.81,9.96,-0.03,-0.01,-0.0,31.39,16.143705,9.592251005414647,-329.8236621929723,10.009125835955906,0.03162277660168379,0.23507436922298383,-1.1802421012119542
18103195,1999,1,211911.0,239973,0.58,-0.82,9.94,-0.03,-0.01,-0.0,31.39,16.183705,14.548958683099702,-474.7576003191777,9.990615596648686,0.03162277660168379,0.35030823515812437,-1.699560506487375
18143195,1984,1,211962.0,240244,0.57,-0.83,9.96,-0.03,-0.01,-0.0,31.39,16.223705,10.76522952156104,-475.63316737405813,10.010764206592823,0.03162277660168379,0.2623438508756805,-1.7026977847020623
18183201,1994,1,212118.0,240736,0.59,-0.85,9.95,-0.03,-0.01,-0.0,31.39,16.263711,10.596449845022809,-353.1620726142853,10.003654332292774,0.03162277660168379,0.2584200498602722,-1.263866863212871
18223195,1990,1,212301.0,241363,0.56,-0.82,9.96,-0.03,-0.01,-0.0,31.39,16.303705,16.02034601867361,-171.35576143420352,10.009375604901637,0.03162277660168379,0.38451514466168707,-0.6124296304176643
18263192,1983,1,212459.0,241919,0.57,-0.82,9.98,-0.03,-0.01,-0.0,31.39,16.343702,5.002209478870388,5.729213906399113,10.029840477295739,0.03162277660168379,0.12836478207348387,0.02209040112966796
18303195,1969,1,212625.0,242295,0.59,-0.8599999999999999,9.96,-0.03,-0.01,-0.0,31.39,16.383705,-8.318968505025325,144.0980859813209,10.014454553294453,0.03162277660168379,-0.1813268394044451,0.5178852640494561
18343195,1954,1,212688.0,242498,0.56,-0.83,9.96,-0.03,-0.01,-0.0,31.39,16.423705,-15.169552269610282,240.81077418550456,10.010199798205829,0.03162277660168379,-0.3405896611075636,0.864420241691208
18384195,1935,1,212814.0,242648,0.57,-0.83,9.97,-0.03,-0.01,-0.0,31.39,16.464705,-46.123925254905195,305.1856056769201,10.020713547447608,0.03162277660168379,-1.0602189591499513,1.0950841928831285
18424882,1915,1,212836.0,242654,0.58,-0.83,9.97,-0.03,-0.01,-0.0,31.15,16.505392,-45.896045332137454,342.2907553105568,10.021287342452565,0.03162277660168379,-1.0549211917250643,1.2280370911785345
18463195,1982,1,212908.0,242721,0.59,-0.83,9.95,-0.03,-0.01,-0.0,31.15,16.543705,0.9698214413326798,352.9880392746057,10.001974805007258,0.03162277660168379,0.034619559895463496,1.2663669435292708
18503192,1965,1,212947.0,242737,0.59,-0.82,9.99,-0.03,-0.01,-0.0,31.15,16.583702,7.529975991009017,345.3125041753881,10.040946170555841,0.03162277660168379,0.18713046411813491,1.2388644365326678
18543195,1968,1,212904.0,242636,0.56,-0.82,9.97,-0.03,-0.01,-0.0,31.15,16.623705,-6.932691144514078,338.78434405951276,10.01932632465876,0.03162277660168379,-0.14909857219610326,1.2154731332631266
18583213,1957,1,212878.0,242491,0.58,-0.82,9.96,-0.03,-0.01,-0.0,31.15,16.663723,-1.7631753727720374,349.672293526784,10.01051447229362,0.03162277660168379,-0.028917329700735885,1.2544861665606766
18623195,1970,1,212890.0,242491,0.57,-0.8,9.92,-0.03,-0.01,-0.0,31.15,16.703705,4.158002397408698,367.40506970894774,9.968515436111838,0.03162277660168379,0.10873860034713152,1.3180251634794538
18663192,1966,1,212959.0,242532,0.57,-0.83,9.95,-0.03,-0.01,-0.0,31.15,16.743702,5.443138028855648,348.50859335798117,10.000814966791456,0.03162277660168379,0.13861551798932614,1.2503164674295095
18703195,1956,1,212974.0,242108,0.58,-0.82,9.96,-0.03,-0.01,-0.0,31.15,16.783705,-2.5360520029708478,243.76151689708814,10.01051447229362,0.03162277660168379,-0.0468852164070037,0.8749931621484117
18743193,1950,1,212692.0,241162,0.57,-0.83,9.96,-0.03,-0.01,-0.0,31.15,16.823703,-9.367077915942954,42.018668448954244,10.010764206592823,0.03162277660168379,-0.2056933558901315,0.15212055076200662
18783195,1955,1,212378.0,240463,0.57,-0.82,9.99,-0.03,-0.01,-0.0,31.15,16.863705,-0.060221239775506905,-207.36580335903437,10.03979083447459,0.03162277660168379,0.01067305993205869,-0.7414586058810927
18823192,1968,1,212199.0,240106,0.57,-0.82,9.95,-0.03,-0.01,-0.0,31.15,16.903702,12.665398439815215,-416.7582131212091,9.999989999994998,0.03162277660168379,0.3065191028006611,-1.4917406565887767
18863195,1958,1,212164.0,240053,0.58,-0.83,9.94,-0.03,-0.01,-0.0,31.15,16.943705,4.160847587872832,-511.81095258892174,9.99144133746478,0.03162277660168379,0.108804745522079,-1.8323278076427185
18903192,1943,1,212212.0,240391,0.58,-0.82,9.98,-0.03,-0.01,-0.0,31.15,16.983702,-8.2787378981589,-473.0974561809867,10.03041375018997,0.03162277660168379,-0.18039155561133263,-1.6936119797480962
18943195,1948,1,212392.0,240748,0.57,-0.84,9.98,-0.03,-0.01,-0.0,31.15,17.023705,-4.0026671908917235,-340.1202777002694,10.031495401982697,0.03162277660168379,-0.08098118270821707,-1.2171363029021576
18983192,1946,1,212510.0,241073,0.57,-0.83,9.94,-0.03,-0.01,-0.0,31.15,17.063702,-3.535933769505307,-181.47270674655542,9.99086582834541,0.03162277660168379,-0.07013053344567866,-0.6486800488758603
19023205,1943,1,212610.0,241338,0.58,-0.83,9.96,-0.03,-0.01,-0.0,31.15,17.103715,-5.651824624122724,-56.35280254726266,10.011338571839433,0.03162277660168379,-0.11932090312837221,-0.20035807572689726
19063192,1940,1,212716.0,241470,0.58,-0.82,9.96,-0.03,-0.01,-0.0,31.15,17.143702,-9.48373842578655,9.620844995155677,10.01051447229362,0.03162277660168379,-0.20840548709201034,0.03603465516058698
19103195,1934,1,212719.0,241670,0.58,-0.82,9.98,-0.03,-0.01,-0.0,31.15,17.183705,-11.711593607601651,27.48372473291464,10.03041375018997,0.03162277660168379,-0.2601988108137127,0.1000398311667879
19143192,1945,1,212754.0,241742,0.56,-0.83,9.96,-0.03,-0.01,-0.0,31.15,17.223702,-3.673074029605024,32.6202006150924,10.010199798205829,0.03162277660168379,-0.07331877922781074,0.11844453677511438
19183195,1937,1,212836.0,241756,0.58,-0.82,9.97,-0.03,-0.01,-0.0,31.15,17.263705,-8.222195173903767,64.50249431916677,10.020464061110143,0.03162277660168379,-0.17907704664084065,0.23268321776993386
19223192,1934,1,212844.0,241994,0.57,-0.83,9.93,-0.03,-0.01,-0.0,31.15,17.303702,-12.053126582428773,143.25068662624327,9.980916791557778,0.03162277660168379,-0.26813879186420686,0.5148489146105336
19263195,1947,1,212897.0,242252,0.58,-0.81,9.95,-0.03,-0.01,-0.0,31.15,17.343705,0.11135946403763383,250.2074544583698,9.999749996874922,0.03162277660168379,0.014661979413688207,0.8980898505990823
19303195,1949,1,212966.0,242502,0.57,-0.83,9.98,-0.03,-0.01,-0.0,31.15,17.383705,6.220113651633987,326.37406767139976,10.030662989055111,0.03162277660168379,0.15667869834454262,1.1710053914338114
19343195,1959,1,213052.0,242550,0.57,-0.83,9.97,-0.03,-0.01,-0.0,31.15,17.423705,9.993301959950243,300.3018688040492,10.020713547447608,0.03162277660168379,0.24439802817833678,1.0775850862046388
19383195,1947,1,212940.0,241841,0.57,-0.82,9.96,-0.03,-0.01,-0.0,31.15,17.463705,6.702669757538697,136.48812528915204,10.009940059760599,0.03162277660168379,0.1678971944169148,0.49061771924966974
19424195,1936,1,212521.0,240512,0.57,-0.82,9.94,-0.03,-0.01,-0.0,31.15,17.504705,-14.352737615325095,-129.41077639789955,9.9900400399598,0.03162277660168379,-0.3216003003289355,-0.46213493050143933
19464882,1923,1,212167.0,239782,0.57,-0.84,9.96,-0.03,-0.01,-0.0,31.25,17.545392,-16.242985613978707,-401.3599071115051,10.01159827400201,0.03162277660168379,-0.3655449100628602,-1.4365663901313297
19503195,1961,1,212062.0,239643,0.56,-0.83,9.98,-0.03,-0.01,-0.0,31.25,17.583705,10.573626894187797,-577.459814693946,10.030099700401786,0.03162277660168379,0.25788946039892346,-2.0675567872543814
19543195,1953,1,212043.0,239753,0.56,-0.81,9.95,-0.03,-0.01,-0.0,31.25,17.623705,13.324524270167077,-607.997190991769,9.998609903381569,0.03162277660168379,0.3218425034343308,-2.1769764426181344
19583195,1940,1,212136.0,240107,0.58,-0.81,9.94,-0.03,-0.01,-0.0,31.25,17.663705,-9.199313902451044,-514.618094595486,9.989799797793747,0.03162277660168379,-0.20179316707599174,-1.8423861868538127
19623193,1931,1,212258.0,240466,0.59,-0.82,9.97,-0.03,-0.01,-0.0,31.25,17.703703,-10.279566307410912,-362.68117287779336,10.021047849401779,0.03162277660168379,-0.22690694600018999,-1.2979751199290943
19663195,1943,1,212354.0,240717,0.55,-0.83,9.97,-0.03,-0.01,-0.0,31.25,17.743705,-3.8831101822902454,-214.82528501672394,10.019595800230666,0.03162277660168379,-0.07820171351280478,-0.7681869634261649
19703192,1939,1,212416.0,240891,0.56,-0.81,9.96,-0.03,-0.01,-0.0,31.25,17.783702,-4.614793124724421,-100.60284815779151,10.008561335177,0.03162277660168379,-0.09521192665792746,-0.35891212743433165
19743195,1951,1,212477.0,241203,0.57,-0.82,9.96,-0.03,-0.01,-0.0,31.25,17.823705,7.048048867866556,-15.79832952586668,10.009940059760599,0.03162277660168379,0.17592659067836758,-0.055045773249355855
19783192,1958,1,212573.0,241458,0.56,-0.82,9.96,-0.03,-0.01,-0.0,31.25,17.863702,12.298898786743225,60.08896669270989,10.009375604901637,0.03162277660168379,0.2979986947730694,0.21686893604790716
19823195,1955,1,212617.0,241648,0.56,-0.83,9.96,-0.03,-0.01,-0.0,31.25,17.903705,13.356444404610066,147.40046373219906,10.010199798205829,0.03162277660168379,0.32258458481822894,0.5297181416306179
19863192,1971,1,212717.0,241912,0.58,-0.79,9.96,-0.03,-0.01,-0.0,31.25,17.943702,24.860165139531276,259.11296674130665,10.008101718108184,0.03162277660168379,0.5900238406958953,0.9299995364651233
19903195,1968,1,212822.0,242099,0.57,-0.81,9.95,-0.03,-0.01,-0.0,31.25,17.983705,27.227887354064794,397.1895878064589,9.999174965965942,0.03162277660168379,0.645068802388822,1.424747223476385
19943195,1976,1,212876.0,242121,0.57,-0.84,9.96,-0.03,-0.01,-0.0,31.25,18.023705,30.918803501943312,545.3468683180256,10.01159827400201,0.03162277660168379,0.7308754636283479,1.95561531165468
19983195,1969,1,212921.0,242033,0.57,-0.82,9.95,-0.03,-0.01,-0.0,31.25,18.063705,28.96480780123837,662.4476280587479,9.999989999994998,0.03162277660168379,0.6854488431264839,2.3752035778076204
20023211,1961,1,212987.0,242111,0.6,-0.81,9.96,-0.03,-0.01,-0.0,31.25,18.103721,16.534345984882822,690.446654636717,10.01087908227844,0.03162277660168379,0.3964646496654765,2.475527974009934
20063195,1958,1,212934.0,241785,0.56,-0.82,9.96,-0.03,-0.01,-0.0,31.25,18.143705,20.220869904206857,583.5731480952458,10.009375604901637,0.03162277660168379,0.48216920008683123,2.0925853747756564
20103195,1967,1,212595.0,240475,0.57,-0.81,9.96,-0.03,-0.01,-0.0,31.25,18.183705,22.23650146785142,343.45179046335517,10.009125835955906,0.03162277660168379,0.5290287351821371,1.2321972411876714
20143195,1953,1,212105.0,239281,0.56,-0.81,9.99,-0.03,-0.01,-0.0,31.25,18.223705,17.660552841171086,31.318724967312516,10.038416209741456,0.03162277660168379,0.4226467806951135,0.11378116899081181
20183195,1949,1,211855.0,238881,0.55,-0.82,9.95,-0.03,-0.01,-0.0,31.25,18.263705,5.822649446404406,-257.1384175142006,9.998869936147784,0.03162277660168379,0.14743842437284183,-0.91980078676451
20223223,1918,1,211715.0,238615,0.57,-0.81,9.96,-0.03,-0.01,-0.0,31.25,18.303733,-18.23510873328827,-438.1409149545861,10.009125835955906,0.03162277660168379,-0.4118579192988667,-1.568357843426822
20263195,1904,1,211595.0,238311,0.57,-0.79,9.97,-0.03,-0.01,-0.0,31.25,18.343705,-32.98251956324416,-475.9447738887019,10.017479722964255,0.03162277660168379,-0.7547066957397749,-1.7038143140695132
20303195,1903,1,211610.0,238588,0.57,-0.82,9.95,-0.03,-0.01,-0.0,31.25,18.383705,-38.4083906967424,-389.98827205592954,9.999989999994998,0.03162277660168379,-0.8808477045375531,-1.3958202442749106
20343195,1893,1,211770.0,239084,0.57,-0.82,9.96,-0.03,-0.01,-0.0,31.25,18.423705,-34.958839783595444,-236.8104324926424,10.009940059760599,0.03162277660168379,-0.8006523181419475,-0.8469627965715872
20383195,1917,1,211877.0,239365,0.56,-0.82,9.97,-0.03,-0.01,-0.0,31.25,18.463705,-29.747909104403785,-81.88420005670334,10.01932632465876,0.03162277660168379,-0.6795082591556559,-0.2918406146717094
20423195,1913,1,211912.0,239558,0.57,-0.81,9.97,-0.03,-0.01,-0.0,31.25,18.503705,-8.866723897118417,25.46235234375455,10.019076803777882,0.03162277660168379,-0.19406109276819902,0.09279697349536867
20462195,1958,1,211941.0,239726,0.56,-0.82,9.93,-0.03,-0.01,-0.0,31.25,18.542705,11.300756404862458,67.58000182047087,9.979524036746442,0.03162277660168379,0.27479381506316725,0.2437103540532846
20502879,1904,1,211953.0,239577,0.57,-0.81,9.98,-0.03,-0.01,-0.0,31.25,18.583389,-18.591665633060053,62.623479553315875,10.029027869140657,0.03162277660168379,-0.42014717754411796,0.22595044721041907
20543195,1910,1,211931.0,239333,0.58,-0.81,9.96,-0.03,-0.01,-0.0,31.25,18.623705,-30.613691452965547,55.85189719335688,10.009700295213639,0.03162277660168379,-0.6996360241098668,0.20168692827324036
20583195,1920,1,211873.0,239508,0.57,-0.82,9.96,-0.03,-0.01,-0.0,31.25,18.663705,-7.497814608266877,96.84815417883576,10.009940059760599,0.03162277660168379,-0.16223659963154527,0.3485822039775494
20623195,1930,1,211997.0,239928,0.57,-0.82,9.95,-0.03,-0.01,-0.0,31.25,18.703705,-3.7479103259141215,207.79923298539595,9.999989999994998,0.03162277660168379,-0.07505857836399715,0.7461353102709629
20663195,1936,1,212144.0,240269,0.53,-0.82,9.97,-0.03,-0.01,-0.0,31.25,18.743705,5.2914079024586265,359.2519813304164,10.017694345506854,0.03162277660168379,0.1350880860364049,1.2888115168377574
20703195,1943,1,212168.0,240508,0.57,-0.83,9.96,-0.03,-0.01,-0.0,31.25,18.783705,12.119122147567177,473.7701677379739,10.010764206592823,0.03162277660168379,0.29381923564733814,1.6991460644881475
20743195,1935,1,212240.0,240533,0.55,-0.82,9.95,-0.03,-0.01,-0.0,31.25,18.823705,5.003953466725316,464.70166008941106,9.998869936147784,0.03162277660168379,0.1284053264177816,1.6666523436166514
20783195,1936,1,212187.0,239830,0.6,-0.8,9.94,-0.03,-0.01,-0.0,31.25,18.863705,4.435600183940519,291.58987583562254,9.990175173639349,0.03162277660168379,0.11519221193716167,1.046368806887131
20823191,1927,1,211735.0,238290,0.55,-0.8,9.97,-0.03,-0.01,-0.0,31.25,18.903701,-0.986723853450289,-5.503730295942498,10.017155284810155,0.03162277660168379,-0.010866333737131756,-0.018158796160673805
20863195,1919,1,211340.0,237584,0.57,-0.83,9.96,-0.03,-0.01,-0.0,31.25,18.943705,-13.172695673274912,-322.4503429207285,10.010764206592823,0.03162277660168379,-0.2941666076864916,-1.1538224754462216
20903195,1921,1,211194.0,237464,0.56,-0.8,9.96,-0.03,-0.01,-0.0,31.25,18.983705,-7.237299584308623,-550.8865932883399,10.00775699145418,0.03162277660168379,-0.156180129228813,-1.9723412487697147
20943195,1936,1,211206.0,237520,0.55,-0.83,9.97,-0.03,-0.01,-0.0,31.25,19.023705,5.787032503763278,-637.8240756116247,10.019595800230666,0.03162277660168379,0.14661039934893239,-2.2838503077416323
20983192,1934,1,211244.0,237818,0.58,-0.81,9.96,-0.03,-0.01,-0.0,31.25,19.063702,2.4625840044584137,-602.2908606433144,10.009700295213639,0.03162277660168379,0.06932340209431696,-2.1565298694079753
21023205,1936,1,211357.0,238217,0.56,-0.82,9.96,-0.03,-0.01,-0.0,31.25,19.103715,9.116739280997619,-504.10948501001275,10.009375604901637,0.03162277660168379,0.2240196413945212,-1.8047323809740754
21063195,1950,1,211493.0,238512,0.57,-0.82,9.96,-0.03,-0.01,-0.0,31.25,19.143705,15.071502572933596,-397.0741319881025,10.009940059760599,0.03162277660168379,0.36245636986000135,-1.4212098633493386
21103195,1935,1,211577.0,238760,0.56,-0.84,9.95,-0.03,-0.01,-0.0,31.25,19.183705,8.975274396766379,-303.0196333404539,10.001084941145134,0.03162277660168379,0.2207308564662871,-1.0841995476278161
21143195,1943,1,211721.0,239001,0.58,-0.82,9.96,-0.03,-0.01,-0.0,31.25,19.223705,8.035030667592974,-217.78358006498195,10.01051447229362,0.03162277660168379,0.19887200844067046,-0.7787869449533193
21183195,1921,1,211877.0,239353,0.56,-0.81,9.97,-0.03,-0.01,-0.0,31.25,19.263705,-8.274437980129637,-132.1584239593161,10.018512863693893,0.03162277660168379,-0.1802915908343201,-0.4719801328626091
21223195,1921,1,212011.0,239732,0.57,-0.83,9.95,-0.03,-0.01,-0.0,31.25,19.303705,-11.601412592407938,-43.80352658368758,10.000814966791456,0.03162277660168379,-0.2576373153294037,-0.155392279136936
21263195,1936,1,212216.0,240091,0.56,-0.8,9.96,-0.03,-0.01,-0.0,31.25,19.343705,2.85162866501389,48.20798563447238,10.00775699145418,0.03162277660168379,0.07836793793794969,0.1742977328084101
21303192,1935,1,212371.0,240398,0.58,-0.81,9.97,-0.03,-0.01,-0.0,31.25,19.383702,2.342981826488401,153.1823901174981,10.019650692514187,0.03162277660168379,0.06654288279845563,0.5504355859273342
21343195,1935,1,212520.0,240742,0.57,-0.8,9.98,-0.03,-0.01,-0.0,31.25,19.423705,1.8088262028000486,283.83302074935074,10.028225166997398,0.03162277660168379,0.05412479774459744,1.0185749190963538
21383192,1940,1,212685.0,241181,0.57,-0.82,9.97,-0.03,-0.01,-0.0,31.25,19.463702,2.538482809397196,433.71314176208415,10.019890218959487,0.03162277660168379,0.07108790250097353,1.5556161837795937
21423195,1938,1,212898.0,241612,0.57,-0.81,9.97,-0.03,-0.01,-0.0,31.25,19.503705,7.855420587829114,558.344004814112,10.019076803777882,0.03162277660168379,0.19469642149910307,2.0021858546590185
21463195,1936,1,213108.0,242113,0.54,-0.82,9.94,-0.03,-0.01,-0.0,31.25,19.543705,-7.275989254753981,587.1809862723438,9.988373240923668,0.03162277660168379,-0.15707958923071033,2.105512759436872
21503881,1906,1,213141.0,241603,0.58,-0.82,9.97,-0.03,-0.01,-0.0,31.11,19.584391,-23.485171731211867,468.8308596263853,10.020464061110143,0.03162277660168379,-0.5339117290035209,1.6814478383525922
21542192,1952,1,212820.0,240618,0.56,-0.81,9.96,-0.03,-0.01,-0.0,31.11,19.622702,7.2033552202241395,216.73257891597584,10.008561335177,0.03162277660168379,0.1795371629675141,0.7781447279575413
21582195,1953,1,212557.0,240167,0.56,-0.81,9.98,-0.03,-0.01,-0.0,31.11,19.662705,18.60558072366955,-85.74826882837893,10.028464488644312,0.03162277660168379,0.4446168510317321,-0.3056861090971334
21622192,1953,1,212460.0,240193,0.57,-0.82,9.96,-0.03,-0.01,-0.0,31.11,19.702702,10.889372767910896,-329.8685467402809,10.009940059760599,0.03162277660168379,0.26522994122775745,-1.1804029287712627
21662228,1959,1,212463.0,240402,0.56,-0.83,9.95,-0.03,-0.01,-0.0,31.11,19.742738,17.341645427364863,-442.53677552224207,10.000249996875077,0.03162277660168379,0.4152328001745936,-1.584108821626423
21702192,1953,1,212592.0,240819,0.56,-0.81,9.94,-0.03,-0.01,-0.0,31.11,19.782702,12.802107090575273,-419.3061668852802,9.988658568596685,0.03162277660168379,0.30969731450049165,-1.5008703283729017
21742195,1968,1,212770.0,241329,0.56,-0.83,9.95,-0.03,-0.01,-0.0,31.11,19.822705,21.493295877555294,-311.42590912506324,10.000249996875077,0.03162277660168379,0.5117506427620434,-1.1143203998671811
21782192,1968,1,212971.0,241946,0.55,-0.8,9.94,-0.03,-0.01,-0.0,31.11,19.862702,26.026892282271227,-184.6070142099685,9.987296931602664,0.03162277660168379,0.6171479900086859,-0.6599107073026338
21822195,1957,1,213185.0,242400,0.58,-0.83,9.96,-0.03,-0.01,-0.0,31.11,19.902705,8.399695888919101,-81.89524772836072,10.011338571839433,0.03162277660168379,0.2073497694784424,-0.29188020001177045
21862232,1946,1,213287.0,242816,0.55,-0.83,9.98,-0.03,-0.01,-0.0,31.11,19.942742,0.38315841109802884,-11.689337584727772,10.029546350658139,0.03162277660168379,0.020980779202482206,-0.04032268513245338
21902195,1951,1,213428.0,243313,0.57,-0.83,9.97,-0.03,-0.01,-0.0,31.11,19.982705,0.21462278321223185,40.53329528578639,10.020713547447608,0.03162277660168379,0.017062651846188943,0.146798252670144
21942192,1949,1,213629.0,243795,0.57,-0.82,9.98,-0.03,-0.01,-0.0,31.11,20.022702,0.4593267489176696,93.22063738270515,10.029840477295739,0.03162277660168379,0.022751545727271543,0.3355843080945579
21982195,1952,1,213802.0,244139,0.57,-0.84,9.96,-0.03,-0.01,-0.0,31.11,20.062705,-2.46467803146822,157.02970162335947,10.01159827400201,0.03162277660168379,-0.045225909625524606,0.5642210367448087
22022192,1951,1,213867.0,244480,0.57,-0.84,9.97,-0.03,-0.01,-0.0,31.11,20.102702,0.21918212991595187,231.9229409317953,10.021546786798933,0.03162277660168379,0.017168647838079608,0.8325739022392918
22062195,1959,1,214058.0,244797,0.57,-0.82,9.94,-0.03,-0.01,-0.0,31.11,20.142705,0.5676501049522763,306.1642223501505,9.9900400399598,0.03162277660168379,0.025269854229330736,1.0985907121752174
22102192,1938,1,214131.0,245015,0.56,-0.81,9.96,-0.03,-0.01,-0.0,31.11,20.182702,-15.9148584492772,355.06432151463025,10.008561335177,0.03162277660168379,-0.35791658816743815,1.273806550813331
22142195,1941,1,214213.0,245177,0.57,-0.83,9.95,-0.03,-0.01,-0.0,31.11,20.222705,-20.407908321343047,346.3590090031205,10.000814966791456,0.03162277660168379,-0.46237130695758144,1.2426142084996572
22182192,1936,1,214289.0,244974,0.57,-0.81,9.97,-0.03,-0.01,-0.0,31.11,20.262702,-22.29352515516012,257.4500776409228,10.019076803777882,0.03162277660168379,-0.5062082510669424,0.9240411741455317
22222195,1936,1,214151.0,244205,0.57,-0.82,9.95,-0.03,-0.01,-0.0,31.11,20.302705,-27.762511291687506,96.06718061066621,9.999989999994998,0.03162277660168379,-0.6333516002894387,0.34578386734758154
22262192,1947,1,213930.0,243740,0.57,-0.83,9.97,-0.03,-0.01,-0.0,31.11,20.342702,-16.129803939978718,-94.11831612189792,10.020713547447608,0.03162277660168379,-0.36291365506536544,-0.33567714962737205
22302195,1950,1,213836.0,243580,0.58,-0.81,9.97,-0.03,-0.01,-0.0,31.11,20.382705,-15.75346425510967,-252.72718652163033,10.019650692514187,0.03162277660168379,-0.35416448533169115,-0.903994734200284
22342192,1951,1,213871.0,243681,0.56,-0.82,9.94,-0.03,-0.01,-0.0,31.11,20.422702,-17.80832411018583,-334.86170288997715,9.98947446065107,0.03162277660168379,-0.40193600232499044,-1.1982940998970584
22382195,1947,1,213930.0,243824,0.57,-0.79,9.95,-0.03,-0.01,-0.0,31.11,20.462705,-19.244555382217843,-332.40379124589714,9.997574705897424,0.03162277660168379,-0.43532560135224,-1.1894870615193387
22422192,1941,1,213983.0,244112,0.56,-0.83,9.95,-0.03,-0.01,-0.0,31.11,20.502702,-35.038442524874355,-270.91310857318797,10.000249996875077,0.03162277660168379,-0.8025029279041289,-0.9691574156286608
22462195,1941,1,214128.0,244269,0.57,-0.81,9.96,-0.03,-0.01,-0.0,31.11,20.542705,-24.543072178467085,-188.75979078016326,10.009125835955906,0.03162277660168379,-0.5585058681456272,-0.6747906818191666
22502192,1958,1,214207.0,244444,0.57,-0.82,9.97,-0.03,-0.01,-0.0,31.11,20.582702,-24.540539644691894,-115.21338989119657,10.019890218959487,0.03162277660168379,-0.5584469916339377,-0.4112637252125887
22542882,1936,1,214293.0,244583,0.57,-0.82,9.94,-0.03,-0.01,-0.0,31.15,20.623392,-31.064674305656727,-59.456269747898716,9.9900400399598,0.03162277660168379,-0.7101205031159666,-0.2114782292140361
22581195,2006,1,214398.0,244772,0.57,-0.82,9.95,-0.03,-0.01,-0.0,31.15,20.661705,21.42340264326411,-12.295899422193143,9.999989999994998,0.03162277660168379,0.5101257602565967,-0.04249608033723386
22621195,2019,1,214403.0,244984,0.58,-0.8,9.95,-0.03,-0.01,-0.0,31.15,20.701705,46.17714203577147,44.059616244711926,9.998944944342878,0.03162277660168379,1.0856023209162717,0.1594335498307294
22661192,2007,1,214610.0,245172,0.58,-0.83,9.97,-0.03,-0.01,-0.0,31.15,20.741702,24.620016564736087,123.58835726619162,10.021287342452565,0.03162277660168379,0.5844408508421567,0.44439606099131734
22701195,2013,1,214630.0,245318,0.56,-0.81,9.97,-0.03,-0.01,-0.0,31.15,20.781705,33.00357131107997,225.25790848392376,10.018512863693893,0.03162277660168379,0.7793422827037364,0.8086921664175303
22741195,2016,1,214736.0,245488,0.56,-0.82,9.95,-0.03,-0.01,-0.0,31.15,20.821705,36.27151244766339,326.75915248581305,9.999424983467799,0.03162277660168379,0.8553155930751195,1.1723852037421112
22781195,1999,1,214768.0,245707,0.57,-0.82,9.97,-0.03,-0.01,-0.0,31.15,20.861705,14.088728722877176,388.4983152353928,10.019890218959487,0.03162277660168379,0.33960877878824897,1.3936051882169154
22821195,1975,1,214838.0,245694,0.57,-0.79,9.96,-0.03,-0.01,-0.0,31.15,20.901705,-3.707858511441697,371.4324055071161,10.007527167087781,0.03162277660168379,-0.07412745114821387,1.3324556663089027
22861195,1984,1,214769.0,245000,0.58,-0.82,9.96,-0.03,-0.01,-0.0,31.15,20.941705,-2.927219186456061,262.42686424914234,10.01051447229362,0.03162277660168379,-0.05597909680323748,0.9418736909334635
22901195,1983,1,214452.0,244172,0.57,-0.83,9.95,-0.03,-0.01,-0.0,31.15,20.981705,4.354344643062667,89.25797209331789,10.000814966791456,0.03162277660168379,0.11330317778125222,0.3213855286690455
22941195,1986,1,214255.0,243701,0.55,-0.82,9.95,-0.03,-0.01,-0.0,31.15,21.021705,-0.952836034658793,-90.202568111391,9.998869936147784,0.03162277660168379,-0.010078507498147786,-0.3216464813203665
22981192,1984,1,214174.0,243446,0.57,-0.8,9.96,-0.03,-0.01,-0.0,31.15,21.061702,5.169329542237106,-219.95272385156565,10.0083215376006,0.03162277660168379,0.1322500002927811,-0.7865592880402837
23021206,2000,1,214095.0,243366,0.57,-0.82,9.96,-0.03,-0.01,-0.0,31.15,21.101716,14.9449050659383,-275.3278366479867,10.009940059760599,0.03162277660168379,0.3595132226951009,-0.9849759987236204
23061195,1987,1,214077.0,243511,0.57,-0.81,9.96,-0.03,-0.01,-0.0,31.15,21.141705,7.491203995826785,-268.8885432163985,10.009125835955906,0.03162277660168379,0.18622909022534284,-0.9619031171113028
23101195,1990,1,214109.0,243638,0.57,-0.8,9.93,-0.03,-0.01,-0.0,31.15,21.181705,8.833869825320013,-232.47511522787292,9.978466816099555,0.03162277660168379,0.2174434736936406,-0.8314287534246839
23141195,1990,1,214105.0,243617,0.57,-0.82,9.94,-0.03,-0.01,-0.0,31.15,21.221705,9.92908181277179,-193.12388173093092,9.9900400399598,0.03162277660168379,0.24290503397502458,-0.690427825074434
23181195,1986,1,214088.0,243608,0.55,-0.81,9.97,-0.03,-0.01,-0.0,31.15,21.261705,9.209266957352918,-160.9502606412482,10.017958873942337,0.03162277660168379,0.2261707308970186,-0.575145277644581
23221195,1994,1,214060.0,243730,0.57,-0.82,9.96,-0.03,-0.01,-0.0,31.15,21.301705,15.329444542325291,-132.96273062165065,10.009940059760599,0.03162277660168379,0.3684530217210226,-0.47486207520569407
23261195,1979,1,214113.0,243883,0.57,-0.81,9.96,-0.03,-0.01,-0.0,31.15,21.341705,5.425272650640764,-102.41455163978264,10.009125835955906,0.03162277660168379,0.1382001825021513,-0.3654037123264795
23301237,1977,1,214128.0,244120,0.57,-0.82,9.96,-0.03,-0.01,-0.0,31.15,21.381747,2.139320841776426,-61.97015974043119,10.009940059760599,0.03162277660168379,0.06180815883759478,-0.22048584577947433
23341195,1983,1,214241.0,244298,0.58,-0.82,9.95,-0.03,-0.01,-0.0,31.15,21.421705,12.15449386578129,-1.1443302198209986,10.00056498403965,0.03162277660168379,0.2946415596776478,-0.00253846095997296
23381195,1983,1,214156.0,244457,0.57,-0.81,9.96,-0.03,-0.01,-0.0,31.15,21.461705,12.531628015965016,90.42885843161196,10.009125835955906,0.03162277660168379,0.30340919919318426,0.3255809768423516
23421195,1974,1,214229.0,244746,0.56,-0.81,9.96,-0.03,-0.01,-0.0,31.15,21.501705,7.106117469408434,207.85033324088062,10.008561335177,0.03162277660168379,0.17727657334433003,0.7463184095748979
23461195,1964,1,214344.0,244972,0.59,-0.82,9.96,-0.03,-0.01,-0.0,31.15,21.541705,-2.6870074502181245,316.58286025507545,10.01109884078666,0.03162277660168379,-0.05039463856812578,1.1359221370428438
23501221,1965,1,214418.0,245007,0.57,-0.82,9.97,-0.03,-0.01,-0.0,31.15,21.581731,2.9262474895626047,360.28962680085044,10.019890218959487,0.03162277660168379,0.08010268127635456,1.292529544498593
23541195,1961,1,214386.0,244361,0.57,-0.81,9.98,-0.03,-0.01,-0.0,31.15,21.621705,-1.317668925029278,294.969737014063,10.029027869140657,0.03162277660168379,-0.01856016651688517,1.0584793183376073
23581882,1927,1,214063.0,243327,0.58,-0.82,9.95,-0.03,-0.01,-0.0,31.05,21.662392,-31.233756622428945,124.74838779440235,10.00056498403965,0.03162277660168379,-0.7140513399314297,0.44855261129119683
23622195,1933,1,213766.0,242653,0.56,-0.82,9.95,-0.03,-0.01,-0.0,31.05,21.702705,-23.490160089811592,-92.8503042792849,9.999424983467799,0.03162277660168379,-0.5340276986921723,-0.3311336872990199
23662195,1943,1,213631.0,242245,0.57,-0.81,9.96,-0.03,-0.01,-0.0,31.05,21.742705,-12.113891716225561,-279.2100832251698,10.009125835955906,0.03162277660168379,-0.2695514636892963,-0.9988866267477694
23702217,1925,1,213488.0,242095,0.56,-0.8,9.94,-0.03,-0.01,-0.0,31.05,21.782727,-26.17133851884139,-378.972247365368,9.987852622060458,0.03162277660168379,-0.5963599110657102,-1.3563482996859524
23742195,1936,1,213517.0,242172,0.57,-0.82,9.94,-0.03,-0.01,-0.0,31.05,21.822705,-14.474968105757533,-383.4926075594503,9.9900400399598,0.03162277660168379,-0.3244419228057034,-1.3725453773173981
23782195,1938,1,213517.0,242488,0.57,-0.83,9.95,-0.03,-0.01,-0.0,31.05,21.862705,-10.20906382307547,-322.0844759003714,10.000814966791456,0.03162277660168379,-0.22526789960966348,-1.1525115231598821
23822195,1931,1,213551.0,242665,0.58,-0.81,9.95,-0.03,-0.01,-0.0,31.05,21.902705,-13.309403264853769,-235.65152789944705,9.999749996874922,0.03162277660168379,-0.29734479476240794,-0.8428102806530554
23862195,1953,1,213610.0,242839,0.59,-0.8,9.96,-0.03,-0.01,-0.0,31.05,21.942705,6.7781516393687635,-154.5876186131146,10.0094805060003,0.03162277660168379,0.16965200216773224,-0.552347048643783
23902195,1943,1,213663.0,242942,0.56,-0.83,9.96,-0.03,-0.01,-0.0,31.05,21.982705,3.8636463054334276,-91.19695824100893,10.010199798205829,0.03162277660168379,0.10189539057049368,-0.3252095190947567
23942195,1935,1,213714.0,243113,0.55,-0.83,9.95,-0.03,-0.01,-0.0,31.05,22.022705,-8.037685054694965,-42.50331484928304,9.999694995348607,0.03162277660168379,-0.17478754326013818,-0.1507334401295851
23982195,1943,1,213693.0,243200,0.57,-0.83,9.96,-0.03,-0.01,-0.0,31.05,22.062705,6.576925504199294,4.782011088954996,10.010764206592823,0.03162277660168379,0.16497388374909783,0.018696442040533653
24022192,1944,1,213821.0,243430,0.58,-0.82,9.94,-0.03,-0.01,-0.0,31.05,22.102702,5.514735820681581,69.72314835111082,9.990615596648686,0.03162277660168379,0.14028002816039495,0.251389545365911
24062195,1923,1,213893.0,243508,0.56,-0.81,9.96,-0.03,-0.01,-0.0,31.05,22.142705,-12.53023002033809,169.31616006739907,10.008561335177,0.03162277660168379,-0.27923052395257436,0.6082451217047116
24102195,1927,1,213943.0,243712,0.57,-0.8,9.95,-0.03,-0.01,-0.0,31.05,22.182705,-7.008600142386761,304.46994904214597,9.998369867133341,0.03162277660168379,-0.15086330956875724,1.0925198958861613
24142195,1933,1,214060.0,243937,0.57,-0.81,9.99,-0.03,-0.01,-0.0,31.05,22.222705,-1.671529904518614,446.0369745066564,10.038979031754176,0.03162277660168379,-0.026786749830185533,1.5997741860427992
24182195,1921,1,214184.0,244078,0.57,-0.82,9.94,-0.03,-0.01,-0.0,31.05,22.262705,-10.630941126350338,535.8725414620033,9.9900400399598,0.03162277660168379,-0.2350757308895907,1.9216674842683625
24222195,1923,1,214197.0,244091,0.57,-0.81,9.95,-0.03,-0.01,-0.0,31.05,22.302705,-9.168846999487437,512.893074575274,9.999174965965942,0.03162277660168379,-0.2010848705130589,1.839328866743846
24262195,1932,1,214058.0,243274,0.57,-0.81,9.95,-0.03,-0.01,-0.0,31.05,22.342705,-0.20039058374852398,353.16201690493574,9.999174965965942,0.03162277660168379,0.007414393808914046,1.2669903295126002
24302195,1936,1,213685.0,242092,0.58,-0.81,9.94,-0.03,-0.01,-0.0,31.05,22.382705,7.48305088327362,94.65703761022847,9.989799797793747,0.03162277660168379,0.1860395461287371,0.3407311293645707
24342195,1935,1,213368.0,241464,0.56,-0.81,9.95,-0.03,-0.01,-0.0,31.05,22.422705,1.1891510418381956,-176.24980104255,9.998609903381569,0.03162277660168379,0.03971854886631692,-0.6299656532265394
24382195,1919,1,213292.0,241278,0.56,-0.83,9.96,-0.03,-0.01,-0.0,31.05,22.462705,-7.580888490630566,-370.17414435880323,10.010199798205829,0.03162277660168379,-0.1641679067098517,-1.3248234761567699
24422195,1930,1,213170.0,241323,0.56,-0.81,9.96,-0.03,-0.01,-0.0,31.05,22.502705,-3.4426500963838618,-440.40550587165393,10.008561335177,0.03162277660168379,-0.06796186848066413,-1.5764721868225613
24462195,1927,1,213200.0,241580,0.57,-0.7800000000000002,9.95,-0.03,-0.01,-0.0,31.05,22.542705,-1.4523238585519436,-399.29484829904777,9.996789484629552,0.03162277660168379,-0.02169063326337343,-1.4291669979451362
24502192,1936,1,213325.0,241920,0.58,-0.83,9.96,-0.03,-0.01,-0.0,31.05,22.582702,5.379161342370264,-299.55920802263375,10.011338571839433,0.03162277660168379,0.13712818377621105,-1.0718003636902336
24542195,1936,1,213446.0,242104,0.58,-0.82,9.95,-0.03,-0.01,-0.0,31.05,22.622705,3.3594421370836414,-197.9990769809367,10.00056498403965,0.03162277660168379,0.09017361891929687,-0.7078963259333197
24582881,1931,1,213428.0,242260,0.57,-0.83,9.95,-0.03,-0.01,-0.0,31.27,22.663391,2.802170069984413,-126.36915334421238,10.000814966791456,0.03162277660168379,0.0772181212693926,-0.45123637317172455
24621195,1965,1,213554.0,242453,0.58,-0.81,9.96,-0.03,-0.01,-0.0,31.27,22.701705,29.1683102810855,-84.5328114653278,10.009700295213639,0.03162277660168379,0.690179882155827,-0.30133095675931215
24661192,1955,1,213534.0,242688,0.58,-0.81,9.97,-0.03,-0.01,-0.0,31.27,22.741702,26.370700526672668,-53.635989917469715,10.019650692514187,0.03162277660168379,0.6251408666758157,-0.1906233592030999
24701195,1943,1,213579.0,242878,0.57,-0.82,9.97,-0.03,-0.01,-0.0,31.27,22.781705,5.951171539887953,-14.548667288939333,10.019890218959487,0.03162277660168379,0.1504263144509397,-0.05056806010359897
24741192,1945,1,213682.0,243108,0.57,-0.8,9.95,-0.03,-0.01,-0.0,31.27,22.821702,13.750150984994713,42.64272727929261,9.998369867133341,0.03162277660168379,0.33173750128051577,0.1543566401194017
24781195,1947,1,213760.0,243330,0.57,-0.82,9.96,-0.03,-0.01,-0.0,31.27,22.861705,9.218344801494785,120.93757165180462,10.009940059760599,0.03162277660168379,0.22638177321438854,0.43489792842286557
24821192,1936,1,213857.0,243601,0.56,-0.81,9.96,-0.03,-0.01,-0.0,31.27,22.901702,1.507457314715342,221.33431490377777,10.008561335177,0.03162277660168379,0.047118554022999866,0.794633386346185
24861195,1953,1,213985.0,243766,0.57,-0.82,9.96,-0.03,-0.01,-0.0,31.27,22.941705,14.046847061869617,339.28079513887434,10.009940059760599,0.03162277660168379,0.33863511117992634,1.2172519863472595
24901192,1953,1,214023.0,244066,0.58,-0.81,9.96,-0.03,-0.01,-0.0,31.27,22.981702,15.03861726167328,452.6711501720028,10.009700295213639,0.03162277660168379,0.36169184998200515,1.623545357732377
24941212,1950,1,214144.0,244313,0.57,-0.8,9.97,-0.03,-0.01,-0.0,31.27,23.021722,9.336804213650298,515.670672701058,10.018273304317466,0.03162277660168379,0.22913572541547117,1.8492813861318316
24981191,1949,1,214135.0,244357,0.58,-0.82,9.97,-0.03,-0.01,-0.0,31.27,23.061701,7.648365618343895,474.17639549969414,10.020464061110143,0.03162277660168379,0.18988279395711988,1.7006016349095587
25021205,1946,1,214047.0,243514,0.58,-0.79,9.97,-0.03,-0.01,-0.0,31.27,23.101715,2.6344239571497825,301.08817952068136,10.018053703190056,0.03162277660168379,0.07331834861091005,1.0804025465779077
25061192,1947,1,213691.0,242269,0.55,-0.8,9.96,-0.03,-0.01,-0.0,31.27,23.141702,2.85234454806902,26.550641601740704,10.007202406267199,0.03162277660168379,0.07838458083427612,0.09669646487221654
25101195,1950,1,213348.0,241624,0.57,-0.82,9.96,-0.03,-0.01,-0.0,31.27,23.181705,2.8300918433168905,-265.5485504735993,10.009940059760599,0.03162277660168379,0.0778672484913491,-0.9499354597962054
25141235,1945,1,213187.0,241400,0.55,-0.82,9.97,-0.03,-0.01,-0.0,31.27,23.221745,-1.690425117341203,-479.22064237123914,10.018772379887668,0.03162277660168379,-0.027226026980019608,-1.7155522052648926
25181195,1952,1,213165.0,241394,0.56,-0.82,9.97,-0.03,-0.01,-0.0,31.27,23.261705,0.8357877071129557,-558.576611689009,10.01932632465876,0.03162277660168379,0.03150353483120646,-1.9998956514445156
25221192,1953,1,213159.0,241741,0.59,-0.82,9.94,-0.03,-0.01,-0.0,31.27,23.301702,2.958059441459648,-513.6109584770586,9.991201128993449,0.03162277660168379,0.08084224762531284,-1.8387774784334179
25261195,1947,1,213343.0,242129,0.56,-0.83,9.96,-0.03,-0.01,-0.0,31.27,23.341705,-7.271122155425431,-403.59379100490986,10.010199798205829,0.03162277660168379,-0.15696643858556655,-1.4445707060016624
25301192,1941,1,213475.0,242393,0.57,-0.81,9.95,-0.03,-0.01,-0.0,31.27,23.381702,-13.737278863904116,-293.6698441579483,9.999174965965942,0.03162277660168379,-0.30729207481683973,-1.0506979560013463
25341214,1936,1,213509.0,242514,0.57,-0.81,9.96,-0.03,-0.01,-0.0,31.27,23.421724,-20.56534742478806,-217.2331585115351,10.009125835955906,0.03162277660168379,-0.46603146158421144,-0.7768147081738541
25381195,1922,1,213542.0,242711,0.57,-0.84,9.95,-0.03,-0.01,-0.0,31.27,23.461705,-37.57805087969156,-168.20883031830786,10.001649863897455,0.03162277660168379,-0.8615439098858312,-0.601153739692916
25421195,1930,1,213621.0,242980,0.57,-0.82,9.95,-0.03,-0.01,-0.0,31.27,23.501705,-30.107919533053945,-121.79465529121433,9.999989999994998,0.03162277660168379,-0.6878778052673,-0.43484531208187943
25461192,1936,1,213736.0,243146,0.57,-0.81,9.97,-0.03,-0.01,-0.0,31.27,23.541702,-25.68314575067821,-60.72867336319517,10.019076803777882,0.03162277660168379,-0.5850103734986098,-0.21603742787313168
25501195,1931,1,213791.0,243419,0.56,-0.83,9.96,-0.03,-0.01,-0.0,31.27,23.581705,-36.34351286993668,15.508876490359116,10.010199798205829,0.03162277660168379,-0.8328432890789231,0.05713228878479628
25541192,1937,1,213966.0,243597,0.58,-0.83,9.94,-0.03,-0.01,-0.0,31.27,23.621702,-22.892616672309256,101.27082546601038,9.99144133746478,0.03162277660168379,-0.5201359700407363,0.3644292487043196
25581195,1938,1,214000.0,243743,0.56,-0.83,9.96,-0.03,-0.01,-0.0,31.27,23.661705,-38.713488953933954,198.23869922655675,10.010199798205829,0.03162277660168379,-0.8879406488773082,0.7118785915933898
25621879,1919,1,214131.0,243927,0.58,-0.82,9.98,-0.03,-0.01,-0.0,31.25,23.702389,-39.1734327109261,313.59065702720426,10.03041375018997,0.03162277660168379,-0.8986334515756692,1.125200657804455
25660195,2006,1,214296.0,244113,0.58,-0.8,9.94,-0.03,-0.01,-0.0,31.25,23.740705,23.490100296701023,441.7294196653521,9.988993943335835,0.03162277660168379,0.5581724831643806,1.584339619510324
25700192,1997,1,214348.0,244360,0.56,-0.82,9.99,-0.03,-0.01,-0.0,31.25,23.780702,35.536754668283784,547.9338313950275,10.039228057973382,0.03162277660168379,0.8382338959185557,1.9648847592183358
25740195,2000,1,214461.0,244627,0.55,-0.81,9.97,-0.03,-0.01,-0.0,31.25,23.820705,17.90682136126289,575.5396212907197,10.017958873942337,0.03162277660168379,0.4283720474394211,2.063800133838982
25780195,1993,1,214464.0,244542,0.57,-0.82,9.96,-0.03,-0.01,-0.0,31.25,23.860705,24.318310324100075,479.91604922366264,10.009940059760599,0.03162277660168379,0.5774267643262695,1.7211676103967417
25820195,2000,1,214219.0,243506,0.57,-0.84,9.94,-0.03,-0.01,-0.0,31.25,23.900705,20.793780517722436,266.3268698595532,9.991701556792016,0.03162277660168379,0.4954882636918704,0.9558479520371681
25860195,1999,1,213851.0,242649,0.58,-0.81,9.95,-0.03,-0.01,-0.0,31.25,23.940705,24.332391115269694,-0.9545185153627768,9.999749996874922,0.03162277660168379,0.5777541154850246,-0.001858339292568751
25900195,2000,1,213690.0,242279,0.56,-0.82,9.97,-0.03,-0.01,-0.0,31.25,23.980705,21.92086806401086,-230.7646494679,10.01932632465876,0.03162277660168379,0.521690869060526,-0.8252999173340378
25940195,1984,1,213646.0,242213,0.56,-0.82,9.97,-0.03,-0.01,-0.0,31.25,24.020705,7.065264748283067,-356.5076079385571,10.01932632465876,0.03162277660168379,0.1763268265980291,-1.2758543803662414
25980195,1981,1,213623.0,242305,0.57,-0.8,9.98,-0.03,-0.01,-0.0,31.25,24.060705,2.137661463482486,-369.09224460205826,10.028225166997398,0.03162277660168379,0.061769581501932964,-1.320946879249209
26020192,1968,1,213687.0,242691,0.57,-0.83,9.97,-0.03,-0.01,-0.0,31.25,24.100702,-8.727890336436266,-310.2463506245354,10.020713547447608,0.03162277660168379,-0.19083348102281222,-1.1100938781336052
26060195,1968,1,213874.0,242951,0.57,-0.81,9.96,-0.03,-0.01,-0.0,31.25,24.140705,-11.505963800753555,-236.59311771200095,10.009125835955906,0.03162277660168379,-0.25541831554640476,-0.8461841275670423
26100195,1979,1,213816.0,243237,0.56,-0.81,9.99,-0.03,-0.01,-0.0,31.25,24.180705,3.0392516520660484,-183.70579711364007,10.038416209741456,0.03162277660168379,0.08272980947490838,-0.6566815214313116
26140195,1983,1,213919.0,243425,0.57,-0.83,9.98,-0.03,-0.01,-0.0,31.25,24.220705,4.620126434784516,-153.91013306666434,10.030662989055111,0.03162277660168379,0.1194820903471796,-0.5499195239513033
26180195,1978,1,213962.0,243623,0.57,-0.82,9.96,-0.03,-0.01,-0.0,31.25,24.260705,2.2027688203400246,-129.94556178187557,10.009940059760599,0.03162277660168379,0.06328320161418798,-0.4640511407166699
