timestamp_us,ecg,leads,ir,red,accX,accY,accZ,gyroX,gyroY,gyroZ,temp,time_sec,ecg_filtered,ppg_filtered,accel_magnitude,gyro_magnitude,ecg_norm,ppg_norm
1948964,1829.25,1,200644.0,241181,1.21,-0.76,9.845000000000002,-0.03,-0.01,-0.0,32.7,0.030472,0.7958406464361195,4.472685557055329,9.948151838406973,0.03162277660168379,0.03249280330776875,0.018860913814255406
1989204,1829.25,1,200548.0,241056,1.25,-0.76,9.9,-0.03,-0.01,-0.0,32.7,0.070712,-9.231637499670432,43.07304773731395,10.007502185860366,0.03162277660168379,-0.2862711824489637,0.11197172796222259
2029193,1829.25,1,200416.0,241008,1.25,-0.75,9.91,-0.03,-0.01,-0.0,32.7,0.110701,-17.972289282458945,51.19498696100681,10.016641153600343,0.03162277660168379,-0.564128182962615,0.1315632636593958
2069197,1829.25,1,200330.0,240965,1.25,-0.74,9.89,-0.03,-0.01,-0.0,32.7,0.150705,-28.936658357323402,-13.473841042774202,9.996109243100538,0.03162277660168379,-0.9126750395786727,-0.02442924224787824
2109198,1829.25,1,200212.0,240549,1.24,-0.76,9.9,-0.03,-0.01,-0.0,32.7,0.190706,-37.51926655771733,-187.71774173620824,10.006258041845614,0.03162277660168379,-1.1855079850394659,-0.44473595797555143
2149197,1829.25,1,199770.0,238927,1.25,-0.76,9.93,-0.03,-0.01,-0.0,32.7,0.230705,-47.503260886716156,-462.66141970064155,10.037180879111425,0.03162277660168379,-1.5028896616397773,-1.1079481211297515
2189194,1829.25,1,199232.0,237894,1.25,-0.75,9.89,-0.03,-0.01,-0.0,32.7,0.270702,-57.93304029602626,-760.9011497201907,9.996854505293154,0.03162277660168379,-1.8344424216291941,-1.8273544299024764
2229197,1829.25,1,199037.0,237537,1.24,-0.74,9.92,-0.03,-0.01,-0.0,32.7,0.310705,-65.00871295392265,-962.8646104969959,10.024549865205918,0.03162277660168379,-2.059371320548484,-2.3145255650657313
2269194,1829.25,1,198954.0,237591,1.26,-0.79,9.91,-0.03,-0.01,-0.0,32.7,0.350702,-77.93634138207999,-971.6384434885803,10.020968017112919,0.03162277660168379,-2.470328323306103,-2.3356895823676864
2309197,1829.25,1,199048.0,237983,1.24,-0.77,9.92,-0.03,-0.01,-0.0,32.7,0.390705,-82.9529546393206,-770.8521934960379,10.026809063705162,0.03162277660168379,-2.6298016837640343,-1.851358085185925
2349194,1829.25,1,199315.0,238745,1.25,-0.74,9.9,-0.03,-0.01,-0.0,32.7,0.430702,-95.2871515751225,-434.6978330479671,10.006003198080641,0.03162277660168379,-3.0218940642287357,-1.040495066995991
2389197,1829.25,1,199655.0,239256,1.22,-0.75,9.93,-0.03,-0.01,-0.0,32.7,0.470705,-102.5498517356295,-84.57140193184348,10.03273641635222,0.03162277660168379,-3.252768389436632,-0.19592897448877292
2429194,1915.0,1,199824.0,239321,1.22,-0.75,9.93,-0.03,-0.01,-0.0,32.7,0.510702,-23.820389198368655,176.90575583056446,10.03273641635222,0.03162277660168379,-0.7500337128612571,0.43479959035370197
2469197,2015.25,1,199782.0,239213,1.25,-0.75,9.92,-0.03,-0.01,-0.0,32.7,0.550705,64.05696761007384,311.60772030753157,10.0265347952321,0.03162277660168379,2.0435038153059972,0.7597242509361724
2509194,2015.25,1,199770.0,239215,1.25,-0.75,9.92,-0.03,-0.01,-0.0,32.7,0.590702,62.58210703368974,347.1444508406667,10.0265347952321,0.03162277660168379,1.9966194014071539,0.8454450505661143
2549197,2015.25,1,199755.0,239160,1.24,-0.76,9.91,-0.03,-0.01,-0.0,32.7,0.630705,48.28456288090149,342.7314660746688,10.016151955716326,0.03162277660168379,1.5421140816977073,0.8348001606952419
2589194,2015.25,1,199728.0,239239,1.23,-0.75,9.9,-0.03,-0.01,-0.0,32.7,0.670702,47.389338891780525,348.80801607828664,10.004269088744065,0.03162277660168379,1.5136557631893752,0.8494578604185117
2629197,2015.25,1,199711.0,239271,1.25,-0.74,9.92,-0.03,-0.01,-0.0,32.7,0.710705,36.636895803655676,383.05066010902425,10.02579173930917,0.03162277660168379,1.1718458319731275,0.9320570974254543
2669194,2015.25,1,199582.0,239182,1.25,-0.75,9.9,-0.03,-0.01,-0.0,32.7,0.750702,32.6089431936477,426.92263800656497,10.006747723411438,0.03162277660168379,1.0438010524485857,1.0378839692367972
2709197,2015.25,1,199552.0,239239,1.24,-0.73,9.9,-0.03,-0.01,-0.0,32.7,0.790705,26.989630591903424,437.76597527131395,10.004024190294624,0.03162277660168379,0.8651684534994135,1.0640399922317867
2748193,2015.25,1,199483.0,239296,1.24,-0.76,9.89,-0.03,-0.01,-0.0,32.7,0.829701,20.764999044512688,373.05487634798635,9.996364339098491,0.03162277660168379,0.6672933414321003,0.9079455214850279
2788197,2015.25,1,199440.0,238888,1.23,-0.76,9.91,-0.03,-0.01,-0.0,32.7,0.869705,18.06560799181877,220.42407064275065,10.014918871363863,0.03162277660168379,0.5814822692427407,0.5397733650449281
2828194,2015.25,1,199031.0,237614,1.25,-0.74,9.9,-0.03,-0.01,-0.0,32.7,0.909702,12.583163253820908,15.538167925066436,10.006003198080641,0.03162277660168379,0.4072005694063985,0.04555278959029215
2868197,2015.25,1,198716.0,236994,1.25,-0.75,9.92,-0.03,-0.01,-0.0,32.7,0.949705,10.29471112583247,-171.52125221395553,10.0265347952321,0.03162277660168379,0.33445285448723805,-0.4056671969438935
2908194,2015.25,1,198623.0,236926,1.27,-0.77,9.92,-0.03,-0.01,-0.0,32.7,0.989702,7.516913013574866,-277.87051420890083,10.030563294252223,0.03162277660168379,0.24614929650495854,-0.6622001880630582
2948197,2015.25,1,198699.0,237142,1.25,-0.76,9.92,-0.03,-0.01,-0.0,32.7,1.029705,4.644822567107479,-286.0595862256767,10.027287768883468,0.03162277660168379,0.1548482749689252,-0.6819536597801784
2988881,2015.25,1,198673.0,237396,1.23,-0.76,9.89,-0.03,-0.01,-0.0,32.7,1.070389,4.760126134695963,-227.89967778194875,9.995128813577143,0.03162277660168379,0.15851366563255354,-0.5416618044686161
3029203,2015.25,1,198704.0,237642,1.24,-0.75,9.92,-0.03,-0.01,-0.0,32.7,1.110711,2.08848507487586,-154.01813478402872,10.02529301317423,0.03162277660168379,0.07358473930322883,-0.36344662122967253
3069194,2015.25,1,198734.0,237676,1.24,-0.75,9.91,-0.03,-0.01,-0.0,32.7,1.150702,3.3769515646632255,-98.08041218238012,10.015398144856748,0.03162277660168379,0.11454386260563952,-0.22851506621731102
3109197,2015.25,1,198710.0,237604,1.22,-0.74,9.91,-0.03,-0.01,-0.0,32.7,1.190705,3.426579192265839,-63.55996992597136,10.012197560975313,0.03162277660168379,0.11612147764979719,-0.1452457313796716
3149198,2015.25,1,198693.0,237619,1.23,-0.75,9.92,-0.03,-0.01,-0.0,32.7,1.230706,2.9543367097965265,-36.377654328302896,10.02406105328574,0.03162277660168379,0.10110933862917804,-0.07967723945965767
3189197,2015.25,1,198772.0,237835,1.23,-0.76,9.91,-0.03,-0.01,-0.0,32.7,1.270705,7.9786790496457805,-4.933036747245582,10.014918871363863,0.03162277660168379,0.2608283992664244,-0.0038273308533308755
3229194,2015.25,1,198812.0,237970,1.23,-0.77,9.92,-0.03,-0.01,-0.0,32.7,1.310702,5.248916936861486,31.686634373903086,10.025577290111528,0.03162277660168379,0.17405185998503983,0.08450571058286506
3269197,2015.25,1,198805.0,238030,1.23,-0.75,9.9,-0.03,-0.01,-0.0,32.7,1.350705,12.393254224988885,69.52055771500721,10.004269088744065,0.03162277660168379,0.40116354214195205,0.1757677404117878
3309194,2015.25,1,198810.0,238076,1.23,-0.75,9.89,-0.03,-0.01,-0.0,32.7,1.390702,13.91718545306285,106.44966454610419,9.994373417078233,0.03162277660168379,0.4496078653508363,0.2648471948154371
3349197,2001.0,1,198804.0,238120,1.23,-0.76,9.88,-0.03,-0.01,-0.0,32.7,1.430705,-1.1107599139850648,139.0993903460186,9.98523409840751,0.03162277660168379,-0.028116213738242423,0.3436040348870748
3389194,1977.0,1,198765.0,238221,1.24,-0.74,9.93,-0.03,-0.01,-0.0,32.7,1.470702,-8.374522116090873,155.1571914656669,10.034445674774467,0.03162277660168379,-0.2590243002376756,0.3823382552732571
3429197,1980.0,1,198842.0,238368,1.24,-0.76,9.89,-0.03,-0.01,-0.0,32.7,1.510705,-23.10834260496455,135.8983504790188,9.996364339098491,0.03162277660168379,-0.7273984294080466,0.33588256774786535
3469194,1956.0,1,198861.0,237918,1.24,-0.74,9.89,-0.03,-0.01,-0.0,32.7,1.550702,-12.387020905232974,73.41122807572785,9.994863680911312,0.03162277660168379,-0.3865778175063841,0.18515271672823636
3509197,1987.0,1,198595.0,236934,1.24,-0.76,9.91,-0.03,-0.01,-0.0,32.7,1.590705,-10.630520355037834,-13.295579888916487,10.016151955716326,0.03162277660168379,-0.33074033691496574,-0.023999245216007468
3549227,1938.0,1,198491.0,236602,1.24,-0.77,9.91,-0.03,-0.01,-0.0,32.7,1.630735,-21.39345905518531,-84.11234679654902,10.016915692966572,0.03162277660168379,-0.6728839136473181,-0.19482165334016638
3587197,2012.0,1,198515.0,236644,1.25,-0.75,9.91,-0.03,-0.01,-0.0,32.7,1.668705,31.520338292943162,-105.50380547847439,10.016641153600343,0.03162277660168379,1.0091953388277959,-0.2464215871538788
3627197,1986.0,1,198567.0,236828,1.24,-0.74,9.91,-0.03,-0.01,-0.0,32.7,1.708705,27.33999789726187,-75.25291899643872,10.014654262629339,0.03162277660168379,0.876306296644778,-0.17345116641309588
3667197,1950.0,1,198665.0,237012,1.21,-0.75,9.9,-0.03,-0.01,-0.0,32.7,1.748705,-8.566758368307571,-20.853524980457657,10.001829832585635,0.03162277660168379,-0.2651353077183874,-0.04223032857923398
3707194,1982.0,1,198689.0,237022,1.22,-0.76,9.91,-0.03,-0.01,-0.0,32.7,1.788702,26.506444423742764,25.030037965602343,10.01369562149759,0.03162277660168379,0.8498084251272532,0.06844883764118315
3747224,1963.0,1,198625.0,236941,1.23,-0.74,9.9,-0.03,-0.01,-0.0,32.7,1.828732,18.744364206296833,46.8419894114848,10.003524378937655,0.03162277660168379,0.6030592832368513,0.1210630734299013
3787194,1947.0,1,198599.0,236861,1.23,-0.75,9.92,-0.03,-0.01,-0.0,32.7,1.868702,5.559186317851064,47.46083277924969,10.02406105328574,0.03162277660168379,0.18391502828133913,0.1225558316981677
3827197,1962.0,1,198634.0,236810,1.23,-0.76,9.92,-0.03,-0.01,-0.0,32.7,1.908705,20.8057051181028,34.96670791015175,10.0248142127423,0.03162277660168379,0.6685873487660509,0.09241782073351826
3867194,1915.0,1,198663.0,236903,1.25,-0.77,9.89,-0.03,-0.01,-0.0,32.7,1.948702,-4.39063281473474,15.268746649304918,9.998374867947291,0.03162277660168379,-0.13238025135416173,0.04490289842559814
3907197,1949.0,1,198671.0,237060,1.23,-0.76,9.91,-0.03,-0.01,-0.0,32.7,1.988705,5.838315976797215,-1.3828781599837792,10.014918871363863,0.03162277660168379,0.19278829445376555,0.004736271603834691
3947194,1933.0,1,198593.0,237095,1.23,-0.77,9.89,-0.03,-0.01,-0.0,32.7,2.028702,34.87547073881747,5.644990388201687,9.995894157102706,0.03162277660168379,1.1158518057485332,0.021688717780132632
3987197,1939.0,1,198642.0,237128,1.24,-0.74,9.9,-0.03,-0.01,-0.0,32.7,2.068705,-2.8635040629482154,55.08490119313605,10.00475886765893,0.03162277660168379,-0.08383428190997125,0.1409464160616433
4027889,1841.0,1,198628.0,237349,1.23,-0.74,9.91,-0.03,-0.01,-0.0,32.7,2.109397,-44.96978399709269,137.6547949229892,10.013420993846209,0.03162277660168379,-1.4223528427714647,0.3401194184649656
4068197,1872.0,1,198773.0,237528,1.25,-0.77,9.91,-0.03,-0.01,-0.0,32.7,2.149705,-58.58837265429935,204.23661636482177,10.01815851341952,0.03162277660168379,-1.8552748135302024,0.5007263986003544
4108197,1854.0,1,198887.0,237655,1.24,-0.76,9.91,-0.03,-0.01,-0.0,32.7,2.189705,-34.27194542848889,191.245241006319,10.016151955716326,0.03162277660168379,-1.0822787372562803,0.4693889326231393
4148197,1910.0,1,198730.0,236842,1.23,-0.76,9.89,-0.03,-0.01,-0.0,32.7,2.229705,2.1578186850943966,70.80366687487034,9.995128813577143,0.03162277660168379,0.07578878877789616,0.1788628237676811
4188194,1884.0,1,198402.0,235974,1.25,-0.74,9.91,-0.03,-0.01,-0.0,32.7,2.269702,-17.772812272494892,-117.48379523177489,10.015897363691384,0.03162277660168379,-0.5577869986851238,-0.2753194144386341
4228197,1858.0,1,198171.0,235714,1.24,-0.74,9.92,-0.03,-0.01,-0.0,32.7,2.309705,-25.30002921079911,-286.2828670413164,10.024549865205918,0.03162277660168379,-0.7970700604827781,-0.6824922520978036
4268194,1879.0,1,198221.0,235818,1.24,-0.75,9.92,-0.03,-0.01,-0.0,32.7,2.349702,-32.7244644187539,-359.11622687040847,10.02529301317423,0.03162277660168379,-1.0330857889039062,-0.8581790344950659
4308197,1842.0,1,198277.0,235976,1.23,-0.76,9.9,-0.03,-0.01,-0.0,32.7,2.389705,-32.164175236212564,-319.700407902852,10.005023738102775,0.03162277660168379,-1.0152747290939577,-0.7631011961773976
4348194,1919.0,1,198339.0,236304,1.24,-0.74,9.89,-0.03,-0.01,-0.0,32.7,2.429702,15.564918442149867,-214.37456908223984,9.994863680911312,0.03162277660168379,0.5019877287034351,-0.5090368804694908
4388197,1879.0,1,198449.0,236516,1.23,-0.77,9.9,-0.03,-0.01,-0.0,32.7,2.469705,-8.760714357375653,-111.98282559975509,10.005788324764822,0.03162277660168379,-0.2713009839966984,-0.2620501150820969
4428194,1857.0,1,198454.0,236572,1.23,-0.76,9.91,-0.03,-0.01,-0.0,32.7,2.509702,-23.072829231037755,-56.91726998650743,10.014918871363863,0.03162277660168379,-0.7262694930537977,-0.12922237914748808
4468197,1904.0,1,198458.0,236576,1.23,-0.75,9.93,-0.03,-0.01,-0.0,32.7,2.549705,-6.351559218726822,-48.350612427118335,10.033957344936244,0.03162277660168379,-0.19471623525803436,-0.10855810516589581
4508194,1831.0,1,198409.0,236714,1.24,-0.76,9.9,-0.03,-0.01,-0.0,32.7,2.589702,-30.806457983105627,-52.644562137664536,10.006258041845614,0.03162277660168379,-0.9721141899409411,-0.11891586169658093
4548197,1909.0,1,198444.0,236947,1.23,-0.78,9.96,-0.03,-0.01,-0.0,32.7,2.629705,-12.04282983299064,-31.835413556794045,10.06592767706981,0.03162277660168379,-0.37563631093302396,-0.06872056153222672
4588194,1859.0,1,198581.0,237181,1.22,-0.76,9.91,-0.03,-0.01,-0.0,32.7,2.669702,-4.368613465527935,33.78853083556971,10.01369562149759,0.03162277660168379,-0.13168027720167197,0.08957585189103656
4628197,1915.0,1,198625.0,237312,1.24,-0.75,9.88,-0.03,-0.01,-0.0,32.7,2.709705,0.4443363189968466,138.0574358493454,9.98571479664826,0.03162277660168379,0.02131881531271263,0.3410906586903097
4668194,1910.0,1,198631.0,237450,1.23,-0.74,9.92,-0.03,-0.01,-0.0,32.7,2.749702,30.696639911520755,251.25491378188184,10.023317813977567,0.03162277660168379,0.9830107513076004,0.6141427425172703
4708197,1927.0,1,198693.0,237639,1.24,-0.76,9.9,-0.03,-0.01,-0.0,32.7,2.789705,23.73121366508311,327.2926690017702,10.006258041845614,0.03162277660168379,0.7615864808721546,0.7975590861630959
4748194,1906.0,1,198687.0,237746,1.24,-0.76,9.92,-0.03,-0.01,-0.0,32.7,2.829702,11.854834211409496,319.4210994437442,10.026046080085608,0.03162277660168379,0.3840476823974559,0.7785714858201903
4788197,1903.0,1,198719.0,237511,1.24,-0.75,9.91,-0.03,-0.01,-0.0,32.7,2.869705,3.146050768561594,206.74388277701547,10.015398144856748,0.03162277660168379,0.10720374607710467,0.5067743630167246
4828194,1905.0,1,198407.0,236323,1.25,-0.77,9.9,-0.03,-0.01,-0.0,32.7,2.909702,4.76459708104878,17.08711217822553,10.008266583180127,0.03162277660168379,0.1586557927615049,0.049289113612537176
4868197,1904.0,1,198035.0,235705,1.25,-0.75,9.94,-0.03,-0.01,-0.0,32.7,2.949705,-0.8624951547509204,-178.14146360832476,10.046322710325406,0.03162277660168379,-0.020224113349358613,-0.42163630287825754
4908194,1900.0,1,197947.0,235587,1.24,-0.74,9.93,-0.03,-0.01,-0.0,32.7,2.989702,-1.7888344114710923,-303.02628512756615,10.034445674774467,0.03162277660168379,-0.0496715565980585,-0.7228803003329528
4948197,1936.0,1,197974.0,235663,1.24,-0.77,9.94,-0.03,-0.01,-0.0,32.7,3.029705,25.0847968901508,-322.9954148857572,10.04659643859551,0.03162277660168379,0.8046156032087174,-0.7710493284091321
4988194,1895.0,1,198013.0,235808,1.24,-0.77,9.9,-0.03,-0.01,-0.0,32.7,3.069702,-10.229025653558864,-260.2750237508442,10.00702253420067,0.03162277660168379,-0.31797720251179196,-0.6197567924743936
5028884,1878.0,1,198058.0,235956,1.24,-0.74,9.9,-0.03,-0.01,-0.0,32.7,3.110392,-35.7190485228536,-168.54586973392946,10.00475886765893,0.03162277660168379,-1.1282807672222794,-0.39849005482737443
5067194,1941.0,1,198082.0,235980,1.21,-0.76,9.9,-0.03,-0.01,-0.0,32.7,3.148702,29.90360622559627,-91.71998797371445,10.00258466597509,0.03162277660168379,0.9578009652695431,-0.213172612340073
5107197,1966.0,1,198072.0,235898,1.23,-0.76,9.91,-0.03,-0.01,-0.0,32.7,3.188705,51.32218026493011,-40.71492397949949,10.014918871363863,0.03162277660168379,1.6386770470244245,-0.09013949125191478
5147194,1934.0,1,198056.0,235901,1.24,-0.77,9.92,-0.03,-0.01,-0.0,32.7,3.228702,17.204887386843804,-0.6505793672524426,10.026809063705162,0.03162277660168379,0.5541207804748698,0.006502704169217718
5187210,1933.0,1,198093.0,235988,1.25,-0.77,9.9,-0.03,-0.01,-0.0,32.7,3.268718,17.455423142365294,46.615558863223754,10.008266583180127,0.03162277660168379,0.5620850736741138,0.12051688340717298
5227194,1946.0,1,198155.0,236122,1.23,-0.76,9.92,-0.03,-0.01,-0.0,32.7,3.308702,24.830126288622168,108.16704900978743,10.0248142127423,0.03162277660168379,0.7965198671905989,0.2689898260392549
5267197,1941.0,1,198218.0,236222,1.24,-0.75,9.92,-0.03,-0.01,-0.0,32.7,3.348705,24.40883536761304,182.50299967530498,10.02529301317423,0.03162277660168379,0.7831274298113026,0.44830111992315835
5307194,1966.0,1,198221.0,236253,1.23,-0.75,9.9,-0.03,-0.01,-0.0,32.7,3.388702,42.07050607635537,266.7668826311676,10.004269088744065,0.03162277660168379,1.3445751306400107,0.6515603201516474
5347197,1951.0,1,198202.0,236341,1.24,-0.76,9.9,-0.03,-0.01,-0.0,32.7,3.428705,32.93992870828223,353.06797522973346,10.006258041845614,0.03162277660168379,1.05432276691511,0.8597336257850645
5387245,1916.0,1,198189.0,236406,1.22,-0.76,9.93,-0.03,-0.01,-0.0,32.7,3.468753,-8.538177487034616,416.10475240603745,10.033488924596469,0.03162277660168379,-0.2642267487070128,1.0117893401003941
5427197,1918.0,1,198198.0,236452,1.23,-0.75,9.93,-0.03,-0.01,-0.0,32.7,3.508705,-2.672836103234727,412.8919502981433,10.033957344936244,0.03162277660168379,-0.07777312895518028,1.004039500382172
5467194,1937.0,1,198222.0,236232,1.22,-0.76,9.88,-0.03,-0.01,-0.0,32.7,3.548702,14.799257881964486,309.053510661928,9.984007211535857,0.03162277660168379,0.4776481082779157,0.7535630512433785
5507197,1917.0,1,197897.0,234998,1.25,-0.76,9.9,-0.03,-0.01,-0.0,32.7,3.588705,-7.909686822999039,115.59947110173428,10.007502185860366,0.03162277660168379,-0.24424762871694194,0.28691812600806815
5547193,1904.0,1,197483.0,234060,1.24,-0.76,9.91,-0.03,-0.01,-0.0,32.7,3.628701,-13.678864797464543,-101.25533111353325,10.016151955716326,0.03162277660168379,-0.42764430521776503,-0.23617352509790282
5587221,1920.0,1,197300.0,233926,1.22,-0.74,9.91,-0.03,-0.01,-0.0,32.7,3.668729,-8.395534308697554,-256.3060387246994,10.012197560975313,0.03162277660168379,-0.25969225784049466,-0.6101829075092823
5627194,1917.0,1,197327.0,233879,1.21,-0.76,9.89,-0.03,-0.01,-0.0,32.7,3.708702,1.787779924141284,-302.22608369743404,9.992687326240125,0.03162277660168379,0.06402560878316377,-0.7209500747486945
5667197,1936.0,1,197329.0,233928,1.23,-0.74,9.91,-0.03,-0.01,-0.0,32.7,3.748705,9.459513469535333,-258.86596180107773,10.013420993846209,0.03162277660168379,0.3079027159641909,-0.6163578889948098
5707194,1911.0,1,197332.0,234173,1.21,-0.75,9.93,-0.03,-0.01,-0.0,32.7,3.788702,-7.325929896561174,-190.9686680348394,10.031525307748568,0.03162277660168379,-0.22569055166595034,-0.45257775989924925
5747197,1922.0,1,197361.0,234164,1.26,-0.79,9.91,-0.03,-0.01,-0.0,32.7,3.828705,2.7641436905777637,-155.6643403181583,10.020968017112919,0.03162277660168379,0.09506328358064924,-0.3674175564458216
5787194,1914.0,1,197288.0,234034,1.21,-0.74,9.92,-0.03,-0.01,-0.0,32.7,3.868702,-9.38863243243344,-163.74292327890572,10.020883194609146,0.03162277660168379,-0.2912619019281757,-0.38690450926570435
5828197,1876.0,1,197141.0,234100,1.25,-0.75,9.91,-0.03,-0.01,-0.0,32.7,3.909705,-37.65312451736611,-182.20743564471172,10.016641153600343,0.03162277660168379,-1.189763202165965,-0.4314441374483818
5868194,1910.0,1,197176.0,234276,1.25,-0.76,9.9,-0.03,-0.01,-0.0,32.7,3.949702,-12.567357020418491,-168.95660262250738,10.007502185860366,0.03162277660168379,-0.3923105309578455,-0.3994808142786522
5908197,1899.0,1,197287.0,234488,1.25,-0.75,9.9,-0.03,-0.01,-0.0,32.7,3.989705,-16.874095086402136,-106.1035592401699,10.006747723411438,0.03162277660168379,-0.5292176347700067,-0.2478682979587928
5948194,1886.0,1,197320.0,234613,1.24,-0.76,9.88,-0.03,-0.01,-0.0,32.7,4.029702,-28.411658758025318,-5.800469651301681,9.986470848102448,0.03162277660168379,-0.8959858020301547,-0.005919730492956684
5988197,1906.0,1,197409.0,234771,1.21,-0.75,9.92,-0.03,-0.01,-0.0,32.7,4.069705,-16.676117914802823,108.25607936356931,10.021626614477313,0.03162277660168379,-0.5229241289265315,0.2692045827994584
6028881,1878.0,1,197525.0,234860,1.23,-0.75,9.9,-0.03,-0.01,-0.0,32.7,4.110389,-27.90328956949538,218.81728435108866,10.004269088744065,0.03162277660168379,-0.8798252294105435,0.5358975159251768
6067197,1921.0,1,197501.0,234932,1.23,-0.74,9.91,-0.03,-0.01,-0.0,32.7,4.148705,-5.424332396554768,313.53943492660636,10.013420993846209,0.03162277660168379,-0.1652405771484353,0.7643838839220922
6107195,1921.0,1,197516.0,235053,1.23,-0.76,9.9,-0.03,-0.01,-0.0,32.7,4.188703,17.85509501738453,370.0339657610511,10.005023738102775,0.03162277660168379,0.5747902621591633,0.9006585576243207
6147197,1906.0,1,197561.0,235182,1.23,-0.74,9.94,-0.03,-0.01,-0.0,32.7,4.228705,-18.39371454519477,351.9575209302533,10.043112067481871,0.03162277660168379,-0.5775248909375318,0.8570550161021846
6187194,1869.0,1,197570.0,234800,1.24,-0.76,9.9,-0.03,-0.01,-0.0,32.7,4.268702,-36.714857828516855,231.42055969902663,10.006258041845614,0.03162277660168379,-1.159936597202833,0.5662988169051367
6227197,1915.0,1,197246.0,233471,1.24,-0.75,9.9,-0.03,-0.01,-0.0,32.7,4.308705,-4.455897756702787,22.268316699206014,10.005503485582322,0.03162277660168379,-0.13445496173784818,0.0617870836824229
6267194,1920.0,1,196883.0,232747,1.21,-0.75,9.9,-0.03,-0.01,-0.0,32.7,4.348702,10.273570342232253,-210.7766868817022,10.001829832585635,0.03162277660168379,0.33378080909913194,-0.5003581603233915
6307197,1911.0,1,196735.0,232664,1.24,-0.76,9.9,-0.03,-0.01,-0.0,32.7,4.388705,-4.5067385282393655,-384.1672459520436,10.006258041845614,0.03162277660168379,-0.13607114147295335,-0.9186064670418058
6347194,1913.0,1,196786.0,232697,1.22,-0.75,9.9,-0.03,-0.01,-0.0,32.7,4.428702,0.8490189405595518,-445.88176288791647,10.003044536539862,0.03162277660168379,0.0341832906609734,-1.0674726587581742
6387197,1929.0,1,196809.0,232859,1.22,-0.76,9.9,-0.03,-0.01,-0.0,32.7,4.468705,14.83374155793708,-402.6386501314505,10.00379927827423,0.03162277660168379,0.47874431151430324,-0.9631627194823682
6427194,1922.0,1,196900.0,233115,1.24,-0.75,9.89,-0.03,-0.01,-0.0,32.7,4.508702,9.12779074634012,-304.5866677734433,9.995609035971746,0.03162277660168379,0.2973575663392236,-0.7266442157558575
6467197,1907.0,1,197032.0,233235,1.21,-0.73,9.9,-0.03,-0.01,-0.0,32.7,4.548705,-7.182783955070653,-205.16248374174117,10.000349993875215,0.03162277660168379,-0.2211400784373315,-0.4868157219723547
6507194,1904.0,1,197063.0,233297,1.23,-0.75,9.93,-0.03,-0.01,-0.0,32.7,4.588702,-9.706603773589666,-129.94070518525737,10.033957344936244,0.03162277660168379,-0.30136990820717496,-0.30536765652818276
6547197,1921.0,1,197152.0,233446,1.24,-0.75,9.93,-0.03,-0.01,-0.0,32.7,4.628705,7.280224751143683,-74.29443749197172,10.035188089916401,0.03162277660168379,0.23862520193052217,-0.17113914164996208
6587194,1914.0,1,197220.0,233626,1.25,-0.74,9.91,-0.03,-0.01,-0.0,32.7,4.668702,-1.655555611517703,-23.28019321298199,10.015897363691384,0.03162277660168379,-0.04543475040701111,-0.0480838761118244
6627197,1895.0,1,197293.0,233949,1.24,-0.75,9.91,-0.03,-0.01,-0.0,32.7,4.708705,-17.53841032992827,28.785701213169176,10.015398144856748,0.03162277660168379,-0.5503355840429818,0.07750815322515425
6667197,1935.0,1,197393.0,234211,1.21,-0.75,9.91,-0.03,-0.01,-0.0,32.7,4.748705,16.919920554410716,76.56200037162877,10.011728122557065,0.03162277660168379,0.5450619561133215,0.1927529297080056
6707197,1936.0,1,197463.0,234443,1.23,-0.76,9.93,-0.03,-0.01,-0.0,32.7,4.788705,24.55941878111703,117.86037776314507,10.034709761622405,0.03162277660168379,0.7879143331959809,0.29237182768510017
6747197,1892.0,1,197544.0,234765,1.24,-0.75,9.87,-0.03,-0.01,-0.0,32.7,4.828705,-27.952623184499764,165.31052093701808,9.975820768237568,0.03162277660168379,-0.881393498074055,0.406829858978301
6787197,1891.0,1,197631.0,235087,1.24,-0.75,9.89,-0.03,-0.01,-0.0,32.7,4.868705,-20.331919202873035,237.99181744662928,9.995609035971746,0.03162277660168379,-0.6391385721534492,0.5821498380949934
6826200,1956.0,1,197656.0,235288,1.22,-0.76,9.91,-0.03,-0.01,-0.0,32.7,4.907708,35.90286033897216,335.13408135534587,10.01369562149759,0.03162277660168379,1.1485115432317292,0.8164739420626802
6866197,1950.0,1,197790.0,235549,1.23,-0.75,9.91,-0.03,-0.01,-0.0,32.7,4.947705,36.85183834353828,416.66600380134514,10.014164967684525,0.03162277660168379,1.1786786507260918,1.013143176474124
6906194,1936.0,1,197921.0,235805,1.22,-0.75,9.92,-0.03,-0.01,-0.0,32.7,4.987702,17.94617450221408,417.72803137734354,10.022838919188516,0.03162277660168379,0.577685592289223,1.0157049724434732
6946197,1945.0,1,197985.0,235552,1.23,-0.76,9.91,-0.03,-0.01,-0.0,32.7,5.027705,28.978454079256757,296.2662303566212,10.014918871363863,0.03162277660168379,0.9283912591299107,0.7227178981744701
6986194,1957.0,1,197550.0,234312,1.23,-0.75,9.9,-0.03,-0.01,-0.0,32.7,5.067702,41.067286798141964,76.05523289718586,10.004269088744065,0.03162277660168379,1.3126837446851616,0.19153051806562932
7026223,1936.0,1,197303.0,233753,1.24,-0.75,9.88,-0.03,-0.01,-0.0,32.7,5.107731,19.149407475122384,-157.66382752047738,9.98571479664826,0.03162277660168379,0.6159352232183212,-0.37224066873728046
7066881,1906.0,1,197228.0,233927,1.23,-0.79,9.9,-0.03,-0.01,-0.0,32.7,5.148389,-10.680233654690875,-312.5551139482236,10.007347300858505,0.03162277660168379,-0.3323206753920608,-0.7458654994154057
7107197,1900.0,1,197322.0,234116,1.22,-0.75,9.9,-0.03,-0.01,-0.0,32.7,5.188705,-13.816499913024922,-348.80091208122286,10.003044536539862,0.03162277660168379,-0.4320195945354635,-0.8332966939167993
7147194,1905.0,1,197413.0,234268,1.24,-0.75,9.89,-0.03,-0.01,-0.0,32.7,5.228702,-15.000047749637547,-295.061753170595,9.995609035971746,0.03162277660168379,-0.46964345371873034,-0.7036684584502786
7187197,1903.0,1,197473.0,234584,1.24,-0.77,9.89,-0.03,-0.01,-0.0,32.7,5.268705,-6.565885205024315,-213.91351644372068,9.997129588036758,0.03162277660168379,-0.2015294543593852,-0.5079247409942933
7227194,1924.0,1,197546.0,234733,1.22,-0.75,9.93,-0.03,-0.01,-0.0,32.7,5.308702,2.6185047119952385,-152.61643447432715,10.03273641635222,0.03162277660168379,0.09043355907583636,-0.360065475311448
7267197,1907.0,1,197600.0,234804,1.24,-0.76,9.93,-0.03,-0.01,-0.0,32.7,5.348705,-2.1862435508281353,-119.42730967534176,10.035940414330886,0.03162277660168379,-0.06230481487015861,-0.2800075106617673
7307194,1927.0,1,197613.0,234962,1.21,-0.75,9.92,-0.03,-0.01,-0.0,32.7,5.388702,10.082147630161206,-95.85835152498967,10.021626614477313,0.03162277660168379,0.32769566328529415,-0.22315506788544032
7347197,1920.0,1,197703.0,235278,1.23,-0.76,9.91,-0.03,-0.01,-0.0,32.7,5.428705,5.986436545137575,-63.935781039224054,10.014918871363863,0.03162277660168379,0.19749690633491518,-0.14615225341066715
7387194,1901.0,1,197813.0,235545,1.24,-0.76,9.89,-0.03,-0.01,-0.0,32.7,5.468702,-7.578817491641234,-20.72733731538336,9.996364339098491,0.03162277660168379,-0.23372960760619732,-0.041925941895616076
7427197,1919.0,1,197847.0,235759,1.24,-0.75,9.9,-0.03,-0.01,-0.0,32.7,5.508705,-0.43126937669202425,28.961938146726606,10.005503485582322,0.03162277660168379,-0.006515856320798123,0.07793326748418228
7467194,1887.0,1,197935.0,235950,1.25,-0.77,9.9,-0.03,-0.01,-0.0,32.7,5.548702,-15.392613731828714,86.97441802050061,10.008266583180127,0.03162277660168379,-0.48212275263441534,0.21786949934037433
7507197,1888.0,1,198019.0,236109,1.22,-0.74,9.91,-0.03,-0.01,-0.0,32.7,5.588705,-31.87165060093279,162.03920878440584,10.012197560975313,0.03162277660168379,-1.005975649373697,0.3989388828149311
7547194,1878.0,1,198014.0,236225,1.23,-0.74,9.89,-0.03,-0.01,-0.0,32.7,5.628702,-24.38535769027114,251.30076677610327,9.993627969861597,0.03162277660168379,-0.7679935234618647,0.6142533479463889
7587197,1887.0,1,198107.0,236422,1.23,-0.75,9.92,-0.03,-0.01,-0.0,32.7,5.668705,-26.677627173025687,322.4707115390348,10.02406105328574,0.03162277660168379,-0.8408625884555466,0.7859276827310375
7627194,1887.0,1,198222.0,236567,1.25,-0.77,9.91,-0.03,-0.01,-0.0,32.7,5.708702,-21.06021110372599,322.42935113635946,10.01815851341952,0.03162277660168379,-0.662290278467601,0.7858279142172446
7667197,1899.0,1,198193.0,236128,1.26,-0.75,9.9,-0.03,-0.01,-0.0,32.7,5.748705,-4.56806030429293,215.66704387672536,10.00800179856099,0.03162277660168379,-0.1380205023654631,0.5282985857918253
7707194,1908.0,1,197873.0,234899,1.22,-0.75,9.92,-0.03,-0.01,-0.0,32.7,5.788702,-6.900153411856904,22.40955220212624,10.022838919188516,0.03162277660168379,-0.21215552248630345,0.062127768378646434
7747197,1890.0,1,197548.0,234264,1.22,-0.74,9.93,-0.03,-0.01,-0.0,32.7,5.828705,-5.867947872521464,-181.9648228807933,10.031993819774812,0.03162277660168379,-0.1793426908805325,-0.4308589130956765
7787194,1904.0,1,197476.0,234282,1.24,-0.76,9.89,-0.03,-0.01,-0.0,32.7,5.868702,-11.733696236363317,-312.3450733545232,9.996364339098491,0.03162277660168379,-0.36580924814052107,-0.7453588448251653
7827197,1907.0,1,197567.0,234358,1.23,-0.76,9.91,-0.03,-0.01,-0.0,32.7,5.908705,9.58351412715777,-328.00045404764967,10.014918871363863,0.03162277660168379,0.311844578841801,-0.7831223568701087
7866194,1966.0,1,197550.0,234573,1.23,-0.75,9.92,-0.03,-0.01,-0.0,32.7,5.947702,59.607184270041884,-251.6018819039964,10.02406105328574,0.03162277660168379,1.9020494383873863,-0.5988356597966848
7906197,1938.0,1,197694.0,234858,1.24,-0.76,9.91,-0.03,-0.01,-0.0,32.7,5.987705,30.105958881594905,-142.67196762184585,10.016151955716326,0.03162277660168379,0.964233563597332,-0.33607768471564997
7946197,1910.0,1,197723.0,234950,1.24,-0.77,9.9,-0.03,-0.01,-0.0,32.7,6.027705,17.04777193927079,-52.97293524394952,10.00702253420067,0.03162277660168379,0.5491262299445578,-0.11970795497093184
7986197,1981.0,1,197723.0,234999,1.23,-0.75,9.89,-0.03,-0.01,-0.0,32.7,6.067705,64.39381971017038,0.3858978939712335,9.994373417078233,0.03162277660168379,2.0542120229403356,0.009002868317619114
8026200,1941.0,1,197743.0,235157,1.24,-0.72,9.93,-0.03,-0.01,-0.0,32.7,6.107708,53.013347372238876,30.230710257084436,10.032990581078007,0.03162277660168379,1.6924376396531644,0.08099376737306857
8066197,1917.0,1,197760.0,235337,1.24,-0.75,9.89,-0.03,-0.01,-0.0,32.7,6.147705,3.600713129531068,56.62667571075544,9.995609035971746,0.03162277660168379,0.12165702976862473,0.14466544542975504
8106881,1862.0,1,197800.0,235462,1.21,-0.74,9.91,-0.03,-0.01,-0.0,32.7,6.188389,-33.76006855199896,89.81808518173656,10.010983967622764,0.03162277660168379,-1.0660066585751624,0.22472892110724918
8147197,1893.0,1,197767.0,235560,1.23,-0.77,9.88,-0.03,-0.01,-0.0,32.7,6.228705,-8.762167216247438,130.58532516966358,9.986000200280392,0.03162277660168379,-0.27134716899735,0.32306662291727967
8187197,1904.0,1,197853.0,235709,1.23,-0.77,9.9,-0.03,-0.01,-0.0,32.7,6.268705,-2.142961259296901,180.37957519994706,10.005788324764822,0.03162277660168379,-0.06092891201999502,0.44317904928664464
8227197,1841.0,1,197868.0,235738,1.26,-0.75,9.89,-0.03,-0.01,-0.0,32.7,6.308705,-54.21964874946796,244.5894788423606,9.998109821361236,0.03162277660168379,-1.7163972389013828,0.5980645494948603
8267197,1890.0,1,197843.0,235848,1.24,-0.76,9.9,-0.03,-0.01,-0.0,32.7,6.348705,-16.820453303519898,320.84321233656624,10.006258041845614,0.03162277660168379,-0.5275124135503246,0.7820018704534387
8307197,1920.0,1,197874.0,235937,1.24,-0.75,9.91,-0.03,-0.01,-0.0,32.7,6.388705,19.075247136034,382.8509228259352,10.015398144856748,0.03162277660168379,0.6135777366271324,0.9315752962196191
8347194,1871.0,1,197862.0,236097,1.24,-0.76,9.91,-0.03,-0.01,-0.0,32.7,6.428702,-26.758309244485012,381.62911233862735,10.016151955716326,0.03162277660168379,-0.8434273947111922,0.9286280759661796
8387197,1875.0,1,197877.0,235992,1.22,-0.76,9.92,-0.03,-0.01,-0.0,32.7,6.468705,-37.48046241519032,274.9310955433507,10.023592170474615,0.03162277660168379,-1.184274438283686,0.671253827367481
8427197,1872.0,1,197579.0,234728,1.22,-0.77,9.91,-0.03,-0.01,-0.0,32.7,6.508705,-16.96079203137061,66.87634346550963,10.014459546076363,0.03162277660168379,-0.531973648129339,0.16938943389739214
8467197,1906.0,1,197184.0,233668,1.24,-0.77,9.89,-0.03,-0.01,-0.0,32.7,6.548705,-13.585958172451644,-178.73724401773927,9.997129588036758,0.03162277660168379,-0.42469089204041327,-0.4230734292636251
8507194,1878.0,1,196953.0,233450,1.24,-0.74,9.91,-0.03,-0.01,-0.0,32.7,6.588702,-10.13209238177531,-370.9413266309923,10.014654262629339,0.03162277660168379,-0.31489578606630575,-0.8867032400698002
8547197,1933.0,1,196931.0,233598,1.24,-0.75,9.92,-0.03,-0.01,-0.0,32.7,6.628705,14.604174109719064,-448.2224204012433,10.02529301317423,0.03162277660168379,0.47144658084586094,-1.073118733416481
8587194,1917.0,1,197008.0,233617,1.23,-0.77,9.92,-0.03,-0.01,-0.0,32.7,6.668702,22.082744252012034,-413.80599668991727,10.025577290111528,0.03162277660168379,0.7091832073020569,-0.9901003094737679
8627197,1920.0,1,197009.0,233923,1.23,-0.74,9.93,-0.03,-0.01,-0.0,32.7,6.708705,7.67034051599588,-322.9870557219161,10.033214838724426,0.03162277660168379,0.2510266107692048,-0.7710291646462324
8667238,1903.0,1,197080.0,234128,1.2,-0.76,9.92,-0.03,-0.01,-0.0,32.7,6.748746,-1.0606017187574095,-237.19270643533076,10.021177575514766,0.03162277660168379,-0.02652173245429769,-0.5640782123711129
8707197,1867.0,1,197144.0,234123,1.24,-0.77,9.87,-0.03,-0.01,-0.0,32.7,6.788705,-39.53306185639653,-183.43691371505807,9.977344336044537,0.03162277660168379,-1.24952462078296,-0.4344098532510581
8747194,1850.0,1,197108.0,234156,1.22,-0.76,9.91,-0.03,-0.01,-0.0,32.7,6.828702,-61.42361819343877,-147.52213081207196,10.01369562149759,0.03162277660168379,-1.9454045705325642,-0.3477771252878272
8787197,1873.0,1,197134.0,234285,1.22,-0.77,9.9,-0.03,-0.01,-0.0,32.7,6.868705,-30.390550163718622,-99.40887228757589,10.004563958514135,0.03162277660168379,-0.9588928762383858,-0.23171954397273306
8827194,1879.0,1,197255.0,234567,1.22,-0.77,9.9,-0.03,-0.01,-0.0,32.7,6.908702,-36.645439542118,-25.117965559102856,10.004563958514135,0.03162277660168379,-1.157729855952991,-0.0525169039307563
8867233,1849.0,1,197322.0,234771,1.23,-0.75,9.92,-0.03,-0.01,-0.0,32.7,6.948741,-54.58912715449171,61.886632438129745,10.02406105328574,0.03162277660168379,-1.7281426057144875,0.15735337957352782
8905194,1921.0,1,197420.0,234944,1.23,-0.75,9.9,-0.03,-0.01,-0.0,32.7,6.986702,5.0966495979253805,136.50950213849507,10.004269088744065,0.03162277660168379,0.16921142621369423,0.3373567722725788
8945197,1973.0,1,197466.0,235033,1.21,-0.76,9.89,-0.03,-0.01,-0.0,32.7,7.026705,65.25182306402256,187.11958339294657,9.992687326240125,0.03162277660168379,2.0814871328813886,0.4594371260187617
8985194,1971.0,1,197490.0,235181,1.23,-0.74,9.91,-0.03,-0.01,-0.0,32.7,7.066702,59.249518357277964,224.19683594546794,10.013420993846209,0.03162277660168379,1.8906795794596742,0.54887393377236
9025213,1984.0,1,197490.0,235208,1.21,-0.76,9.91,-0.03,-0.01,-0.0,32.7,7.106721,68.421022589072,262.60529634003603,10.012482209722023,0.03162277660168379,2.182232969226627,0.6415218473024871
9065197,1998.0,1,197519.0,235250,1.23,-0.75,9.91,-0.03,-0.01,-0.0,32.7,7.146705,93.84773601688165,293.92004251983326,10.014164967684525,0.03162277660168379,2.9905239870524674,0.7170584834102453
9105197,1987.0,1,197533.0,235338,1.22,-0.74,9.9,-0.03,-0.01,-0.0,32.7,7.186705,62.02966911402948,278.7592265109844,10.002299735560818,0.03162277660168379,1.9790579257710852,0.6804879477468931
9145880,1906.0,1,197556.0,235297,1.24,-0.75,9.93,-0.03,-0.01,-0.0,32.7,7.227388,9.513510791691436,174.41818734995732,10.035188089916401,0.03162277660168379,0.30961923943897435,0.4287991407880601
9186197,1922.0,1,197416.0,234156,1.23,-0.74,9.91,-0.03,-0.01,-0.0,32.7,7.267705,-9.090665690316472,-21.03206265477144,10.013420993846209,0.03162277660168379,-0.28178982281155035,-0.042660992626732036
9226194,1915.0,1,196995.0,233123,1.24,-0.75,9.91,-0.03,-0.01,-0.0,32.7,7.307702,20.614600330107866,-249.20692618475763,10.015398144856748,0.03162277660168379,0.6625123094559814,-0.5930586083839212
9266197,1962.0,1,196825.0,233020,1.24,-0.76,9.9,-0.03,-0.01,-0.0,32.7,7.347705,33.20938653603403,-420.7406863353836,10.006258041845614,0.03162277660168379,1.0628885747798587,-1.0068279918653875
9306193,1883.0,1,196935.0,233404,1.24,-0.75,9.9,-0.03,-0.01,-0.0,32.7,7.387701,-17.788763214787835,-473.0348369553184,10.005503485582322,0.03162277660168379,-0.558294063957946,-1.1329706150008974
9346197,1891.0,1,197073.0,233682,1.21,-0.72,9.92,-0.03,-0.01,-0.0,32.7,7.427705,-27.887564654200787,-408.1331043932056,10.019426131271192,0.03162277660168379,-0.8793253493208584,-0.9764163026280837
9386194,1900.0,1,197138.0,234152,1.23,-0.75,9.91,-0.03,-0.01,-0.0,32.7,7.467702,-10.79048968918427,-281.24388226449236,10.014164967684525,0.03162277660168379,-0.33582560978301657,-0.6703373408858758
9426197,1888.0,1,197335.0,234542,1.24,-0.76,9.92,-0.03,-0.01,-0.0,32.7,7.507705,-21.456665182548814,-154.76521553474956,10.026046080085608,0.03162277660168379,-0.6748931762743787,-0.36524871045901836
9466193,1893.0,1,197430.0,234805,1.22,-0.74,9.92,-0.03,-0.01,-0.0,32.7,7.547701,-22.75563231099701,-57.945281866453016,10.022095589246792,0.03162277660168379,-0.7161861048849384,-0.1317021233179837
9506197,1872.0,1,197543.0,235047,1.21,-0.74,9.9,-0.03,-0.01,-0.0,32.7,7.587705,-35.058016156285376,19.439534606282024,10.001084941145136,0.03162277660168379,-1.1072671774830383,0.05496356729961422
9546193,1887.0,1,197636.0,235299,1.22,-0.74,9.92,-0.03,-0.01,-0.0,32.7,7.627701,-26.53101389647168,102.01923375960135,10.022095589246792,0.03162277660168379,-0.8362018919455916,0.25416022209660405
9586197,1897.0,1,197782.0,235690,1.24,-0.75,9.92,-0.03,-0.01,-0.0,32.7,7.667705,-12.389342760662975,198.21202949979013,10.02529301317423,0.03162277660168379,-0.3866516270804798,0.4861940430413919
9626193,1901.0,1,197941.0,235983,1.22,-0.75,9.92,-0.03,-0.01,-0.0,32.7,7.707701,-8.558645619518055,290.29338187208054,10.022838919188516,0.03162277660168379,-0.26487741115636965,0.7083103446240411
9666197,1934.0,1,198031.0,236292,1.23,-0.77,9.93,-0.03,-0.01,-0.0,32.7,7.747705,22.967293660946638,351.3873410739644,10.035472086553776,0.03162277660168379,0.7373021910667072,0.85567964272144
9706197,1904.0,1,198102.0,236516,1.22,-0.75,9.9,-0.03,-0.01,-0.0,32.7,7.787705,-2.759718668953034,371.68508176174214,10.003044536539862,0.03162277660168379,-0.08053504302146944,0.9046413377433037
9746197,1890.0,1,198089.0,236644,1.22,-0.77,9.93,-0.03,-0.01,-0.0,32.7,7.827705,-23.19474538914508,367.9046831698928,10.034251342277608,0.03162277660168379,-0.7301450916759227,0.8955223561895259
9786193,1911.0,1,198124.0,236690,1.22,-0.76,9.9,-0.03,-0.01,-0.0,32.7,7.867701,9.959564412363843,364.8808620608773,10.00379927827423,0.03162277660168379,0.3237988594705538,0.8882283716413126
9826197,1924.0,1,198093.0,236754,1.24,-0.75,9.92,-0.03,-0.01,-0.0,32.7,7.907705,3.7505731491304086,364.6034498031586,10.02529301317423,0.03162277660168379,0.1264209371496262,0.8875592048327167
9866194,1904.0,1,198122.0,236885,1.24,-0.75,9.91,-0.03,-0.01,-0.0,32.7,7.947702,12.497500973082097,333.274598143448,10.015398144856748,0.03162277660168379,0.4044774470380971,0.8119885438442449
9906197,1936.0,1,198159.0,237046,1.24,-0.75,9.9,-0.03,-0.01,-0.0,32.7,7.987705,8.336698088860999,224.829161139759,10.005503485582322,0.03162277660168379,0.272209483747905,0.550399212560465
9946193,1879.0,1,198036.0,235968,1.23,-0.77,9.88,-0.03,-0.01,-0.0,32.7,8.027701,-8.92295823477351,25.98847773126592,9.986000200280392,0.03162277660168379,-0.2764585624297213,0.07076076172303446
9986197,1917.0,1,197564.0,234997,1.24,-0.76,9.9,-0.03,-0.01,-0.0,32.7,8.067705,-6.837228547571933,-217.29386421955488,10.006258041845614,0.03162277660168379,-0.21015520094479337,-0.5160787301211663
10026200,1866.0,1,197445.0,234811,1.24,-0.74,9.92,-0.03,-0.01,-0.0,32.7,8.107708,-33.09554240976079,-420.5222848529331,10.024549865205918,0.03162277660168379,-1.0448820050328724,-1.0063011693514659
10066197,1904.0,1,197447.0,234985,1.24,-0.76,9.9,-0.03,-0.01,-0.0,32.7,8.147705,-3.299518915005003,-514.938039133753,10.006258041845614,0.03162277660168379,-0.09769477904251486,-1.2340484559812688
10106194,1909.0,1,197503.0,235127,1.24,-0.75,9.9,-0.03,-0.01,-0.0,32.7,8.187702,-8.41765655893296,-490.95275175167995,10.005503485582322,0.03162277660168379,-0.2603955031187388,-1.1761917543967442
10146883,1831.0,1,197553.0,235411,1.23,-0.75,9.89,-0.03,-0.01,-0.0,32.7,8.228391,-62.108868256800356,-397.4871699392725,9.994373417078233,0.03162277660168379,-1.9671880178016072,-0.9507364496841504
10185196,1906.0,1,197746.0,235653,1.26,-0.75,9.93,-0.03,-0.01,-0.0,32.7,8.266704,-19.344277107817145,-302.7212445728246,10.037679014592966,0.03162277660168379,-0.6077423700242643,-0.72214448924736
10225197,1898.0,1,197726.0,235665,1.23,-0.75,9.9,-0.03,-0.01,-0.0,32.7,8.306705,2.815527579404624,-249.9649255491433,10.004269088744065,0.03162277660168379,0.09669672849745423,-0.5948870352160841
10265193,1934.0,1,197730.0,235633,1.22,-0.74,9.88,-0.03,-0.01,-0.0,32.7,8.346701,16.589225246076204,-239.46205713467592,9.982504695716402,0.03162277660168379,0.5345494670288462,-0.5695522825421786
10305242,1946.0,1,197685.0,235739,1.21,-0.76,9.87,-0.03,-0.01,-0.0,32.7,8.38675,36.88078871585735,-241.50778622105213,9.972893261235678,0.03162277660168379,1.1795989555061277,-0.5744869383329495
10345196,1899.0,1,197809.0,235955,1.22,-0.77,9.92,-0.03,-0.01,-0.0,32.7,8.426704,-6.496920296898934,-222.10179229028643,10.024355340868558,0.03162277660168379,-0.19933712557331562,-0.5276762922098359
10385197,1923.0,1,197844.0,236243,1.23,-0.76,9.9,-0.03,-0.01,-0.0,32.7,8.466705,2.6475028048651303,-159.25705535597507,10.005023738102775,0.03162277660168379,0.09135538084676086,-0.37608381249312484
10425194,1930.0,1,197986.0,236466,1.24,-0.74,9.91,-0.03,-0.01,-0.0,32.7,8.506702,28.16057002893577,-45.306287332448335,10.014654262629339,0.03162277660168379,0.9023915036611435,-0.10121466142378552
10465197,1938.0,1,198040.0,236661,1.22,-0.76,9.92,-0.03,-0.01,-0.0,32.7,8.546705,15.997370673767046,113.09088017886675,10.023592170474615,0.03162277660168379,0.5157349735232316,0.2808669666406606
10505234,1946.0,1,198156.0,236932,1.24,-0.74,9.94,-0.03,-0.01,-0.0,32.7,8.586742,38.576879243323,288.91449329013915,10.04434169072319,0.03162277660168379,1.2335160589753695,0.7049842245766608
10545196,1963.0,1,198345.0,237122,1.24,-0.78,9.89,-0.03,-0.01,-0.0,32.7,8.626704,45.603961084791166,431.8531462889572,9.997904780502763,0.03162277660168379,1.4569003020908617,1.0497772162015013
10585196,1936.0,1,198380.0,237347,1.24,-0.73,9.92,-0.03,-0.01,-0.0,32.7,8.666704,19.300050477246156,484.7327755550013,10.023816638386798,0.03162277660168379,0.6207240208685039,1.1773321160703463
10625196,1930.0,1,198421.0,236909,1.23,-0.76,9.89,-0.03,-0.01,-0.0,32.7,8.706704,17.497280377993125,418.47616420815353,9.995128813577143,0.03162277660168379,0.5634156753535267,1.0175095994737131
10665196,1936.0,1,198074.0,235797,1.24,-0.73,9.93,-0.03,-0.01,-0.0,32.7,8.746704,11.884302341117655,259.6117084281542,10.033713171104703,0.03162277660168379,0.38498444619207123,0.6343007905052174
10705196,1904.0,1,197766.0,235412,1.23,-0.76,9.93,-0.03,-0.01,-0.0,32.7,8.786704,-7.9326053518537245,81.91763429268921,10.034709761622405,0.03162277660168379,-0.24497618693456685,0.20567165395053202
10745196,1918.0,1,197766.0,235366,1.25,-0.74,9.91,-0.03,-0.01,-0.0,32.7,8.826704,-8.29037694060917,-37.28627505287146,10.015897363691384,0.03162277660168379,-0.2563494052014633,-0.08186899131476236
10785196,1902.0,1,197690.0,235353,1.24,-0.75,9.92,-0.03,-0.01,-0.0,32.7,8.866704,-15.304874942201359,-63.32720800015448,10.02529301317423,0.03162277660168379,-0.4793336200250417,-0.1446842689686649
10825196,1904.0,1,197644.0,235434,1.22,-0.75,9.9,-0.03,-0.01,-0.0,32.7,8.906704,-19.52040758585821,-17.878599079161205,10.003044536539862,0.03162277660168379,-0.6133413902739776,-0.035054287810340555
10865196,1933.0,1,197762.0,235637,1.24,-0.77,9.93,-0.03,-0.01,-0.0,32.7,8.946704,6.552879603064177,46.1542316524138,10.036702645789601,0.03162277660168379,0.2155035919858855,0.119404081615663
10905196,1925.0,1,197692.0,235600,1.22,-0.76,9.93,-0.03,-0.01,-0.0,32.7,8.986704,5.814631170094225,84.82899460642054,10.033488924596469,0.03162277660168379,0.19203537699271336,0.212694363422109
10945196,1923.0,1,197621.0,235548,1.23,-0.76,9.9,-0.03,-0.01,-0.0,32.7,9.026704,-12.267848643128271,87.87575081662398,10.005023738102775,0.03162277660168379,-0.3827894447264453,0.22004367143941833
10985193,1924.0,1,197580.0,235561,1.23,-0.75,9.89,-0.03,-0.01,-0.0,32.7,9.066701,6.521722994643618,74.50141885341554,9.994373417078233,0.03162277660168379,0.21451315306015664,0.18778244725804527
11025203,1936.0,1,197550.0,235625,1.23,-0.75,9.92,-0.03,-0.01,-0.0,32.7,9.106711,-3.603349447249012,70.84804518564061,10.02406105328574,0.03162277660168379,-0.10735326246591625,0.17896987200279957
11065196,1890.0,1,197509.0,235750,1.23,-0.76,9.93,-0.03,-0.01,-0.0,32.7,9.146704,-31.874579303901573,90.7937184490474,10.034709761622405,0.03162277660168379,-1.0060687500534318,0.22708231891748043
11105196,1934.0,1,197538.0,235781,1.24,-0.75,9.94,-0.03,-0.01,-0.0,32.7,9.186704,-3.287737512990212,133.15310886233166,10.045083374467332,0.03162277660168379,-0.09732025948641937,0.3292605655819543
11145196,1943.0,1,197585.0,235841,1.23,-0.75,9.9,-0.03,-0.01,-0.0,32.7,9.226704,10.999301329801762,190.36427520443587,10.004269088744065,0.03162277660168379,0.35685110641757084,0.4672638892707791
11185883,1927.0,1,197563.0,235989,1.23,-0.75,9.9,-0.03,-0.01,-0.0,32.7,9.267391,-4.469742836917173,253.59133549314183,10.004269088744065,0.03162277660168379,-0.134895083659627,0.6197785996813169
11226192,1927.0,1,197478.0,236044,1.23,-0.75,9.92,-0.03,-0.01,-0.0,32.7,9.3077,-15.20588379725244,306.3375503335206,10.02406105328574,0.03162277660168379,-0.476186785750385,0.7470116806580288
11266197,1893.0,1,197476.0,236094,1.24,-0.74,9.9,-0.03,-0.01,-0.0,32.7,9.347705,-35.32892416679371,316.61351439323175,10.00475886765893,0.03162277660168379,-1.115879085277282,0.7717991004052014
11306192,1904.0,1,197477.0,236082,1.24,-0.76,9.94,-0.03,-0.01,-0.0,32.7,9.3877,-43.569327779040634,246.20920170516348,10.045834957832026,0.03162277660168379,-1.3778336726032998,0.601971603883246
11346197,1877.0,1,197366.0,235222,1.22,-0.76,9.93,-0.03,-0.01,-0.0,32.7,9.427705,-52.5336633824257,79.82508729477635,10.033488924596469,0.03162277660168379,-1.662801368863552,0.20062406518158007
11386193,1910.0,1,196899.0,233923,1.23,-0.76,9.93,-0.03,-0.01,-0.0,32.7,9.467701,-39.69559655168317,-150.06117689627033,10.034709761622405,0.03162277660168379,-1.2546914440398564,-0.35390174782258227
11426197,1911.0,1,196586.0,233471,1.22,-0.74,9.89,-0.03,-0.01,-0.0,32.7,9.507705,-19.90261175436048,-371.43370150403183,9.992402113606119,0.03162277660168379,-0.625491296995233,-0.8878909342442906
11466192,1911.0,1,196560.0,233491,1.25,-0.76,9.9,-0.03,-0.01,-0.0,32.7,9.5477,-41.840914973484544,-513.7439122390323,10.007502185860366,0.03162277660168379,-1.3228890746790491,-1.231168013387383
11506194,1922.0,1,196502.0,233414,1.23,-0.76,9.92,-0.03,-0.01,-0.0,32.7,9.587702,-7.945214688910603,-548.8770203329491,10.0248142127423,0.03162277660168379,-0.2453770257575925,-1.315915205211561
11544196,2015.25,1,196493.0,233522,1.23,-0.75,9.94,-0.03,-0.01,-0.0,32.7,9.625704,59.184880563098076,-499.8463334976282,10.043853842026973,0.03162277660168379,1.8886248055072319,-1.1976446266052918
11584197,1987.0,1,196559.0,233764,1.21,-0.75,9.91,-0.03,-0.01,-0.0,32.7,9.665705,56.62480226012169,-415.32073536636204,10.011728122557065,0.03162277660168379,1.8072423530285953,-0.9937541236718461
11624197,1988.0,1,196615.0,233828,1.19,-0.73,9.89,-0.03,-0.01,-0.0,32.7,9.705705,33.72115638302679,-334.6478622068637,9.988047857314262,0.03162277660168379,1.079157251095136,-0.7991570661505
11664196,1971.0,1,196673.0,233903,1.22,-0.75,9.87,-0.03,-0.01,-0.0,32.7,9.745704,34.987007897206766,-269.4083403494819,9.973354500868801,0.03162277660168379,1.1193974658487207,-0.6417879470112084
11704196,1991.0,1,196680.0,234027,1.21,-0.76,9.93,-0.03,-0.01,-0.0,32.7,9.785704,44.47172134421878,-209.77273499637116,10.032277906836512,0.03162277660168379,1.4209074784438556,-0.49793645306137085
11744195,1968.0,1,196751.0,234172,1.23,-0.76,9.9,-0.03,-0.01,-0.0,32.7,9.825703,23.971805517154632,-144.3288088057917,10.005023738102775,0.03162277660168379,0.7692346668456828,-0.3400742749764009
11784193,1938.0,1,196793.0,234365,1.23,-0.73,9.93,-0.03,-0.01,-0.0,32.7,9.865701,-0.5910436612317373,-73.95268179512932,10.03248224518738,0.03162277660168379,-0.011594928747506362,-0.17031476723025843
11824196,1943.0,1,196935.0,234463,1.23,-0.75,9.93,-0.03,-0.01,-0.0,32.7,9.905704,-4.274146672236044,-8.352807449301183,10.033957344936244,0.03162277660168379,-0.12867726775975433,-0.012076414962459018
11864196,1919.0,1,196947.0,234710,1.23,-0.75,9.91,-0.03,-0.01,-0.0,32.7,9.945704,-17.765346480260902,48.25709564212082,10.014164967684525,0.03162277660168379,-0.5575496682562101,0.12447655677042205
11904195,1946.0,1,197005.0,234856,1.24,-0.75,9.93,-0.03,-0.01,-0.0,32.7,9.985703,3.830876092263269,103.88616102825551,10.035188089916401,0.03162277660168379,0.12897369127664127,0.25866357667985024
11944231,1971.0,1,196993.0,234923,1.23,-0.74,9.91,-0.03,-0.01,-0.0,32.7,10.025739,29.910707848158236,166.3586213733734,10.013420993846209,0.03162277660168379,0.9580267190912127,0.40935806025481114
11984196,1942.0,1,197015.0,235198,1.24,-0.74,9.87,-0.03,-0.01,-0.0,32.7,10.065704,10.036647886066408,222.1462807077806,9.97507393456309,0.03162277660168379,0.32624926972878454,0.5439276364618625
12024219,1968.0,1,197127.0,235383,1.22,-0.75,9.9,-0.03,-0.01,-0.0,32.7,10.105727,21.393937497485762,231.85654433799976,10.003044536539862,0.03162277660168379,0.6872866962062729,0.5673504879879422
12064196,1958.0,1,197127.0,235195,1.24,-0.77,9.89,-0.03,-0.01,-0.0,32.7,10.145704,35.99320732394246,156.1847992138404,9.997129588036758,0.03162277660168379,1.1513835878884824,0.3848170246073471
12104196,1969.0,1,196930.0,234071,1.23,-0.75,9.9,-0.03,-0.01,-0.0,32.7,10.185704,20.114071922898834,-5.497029312954188,10.004269088744065,0.03162277660168379,0.6466009878114292,-0.005187779408743299
12144198,1952.0,1,196599.0,233430,1.24,-0.76,9.92,-0.03,-0.01,-0.0,32.7,10.225706,35.93359166220063,-200.70890613059174,10.026046080085608,0.03162277660168379,1.149488462746003,-0.4760729150704713
12184195,1962.0,1,196411.0,233464,1.21,-0.77,9.9,-0.03,-0.01,-0.0,32.7,10.265703,17.02264364916185,-351.84673047674994,10.003349439062898,0.03162277660168379,0.548327425519989,-0.8406437397613438
12224882,1878.0,1,196578.0,233590,1.23,-0.76,9.9,-0.03,-0.01,-0.0,31.43,10.30639,-38.72331346930294,-404.82753451160227,10.005023738102775,0.03162277660168379,-1.22378349030438,-0.9684426908401482
12265193,1907.0,1,196531.0,233739,1.23,-0.75,9.92,-0.03,-0.01,-0.0,31.43,10.346701,-26.9432845753117,-357.8290638151223,10.02406105328574,0.03162277660168379,-0.8493075844121172,-0.8550741724355029
12305196,1914.0,1,196669.0,233939,1.24,-0.76,9.91,-0.03,-0.01,-0.0,31.43,10.386704,-8.71606119428201,-250.76990167125888,10.016151955716326,0.03162277660168379,-0.26988150244440984,-0.5968287781911846
12345225,1899.0,1,196731.0,234290,1.23,-0.76,9.92,-0.03,-0.01,-0.0,31.43,10.426733,-21.42749025293685,-131.41379890645993,10.0248142127423,0.03162277660168379,-0.6739657330317431,-0.3089210158219869
12385196,1902.0,1,196872.0,234503,1.24,-0.77,9.9,-0.03,-0.01,-0.0,31.43,10.466704,-25.19988831912585,-27.769567487274617,10.00702253420067,0.03162277660168379,-0.7938866768541241,-0.058913030816183834
12425192,1899.0,1,196948.0,234615,1.22,-0.76,9.93,-0.03,-0.01,-0.0,31.43,10.5067,-13.250805234215473,57.021938093452924,10.033488924596469,0.03162277660168379,-0.4140366991442938,0.14561888731931974
12465197,1937.0,1,197016.0,234888,1.22,-0.77,9.87,-0.03,-0.01,-0.0,31.43,10.546705,12.68839475625577,132.2611892882324,9.97487844537466,0.03162277660168379,0.4105457787057406,0.3271090998182118
12505197,1909.0,1,197104.0,235172,1.24,-0.75,9.88,-0.03,-0.01,-0.0,31.43,10.586705,-2.991475697962954,205.39436853107978,9.98571479664826,0.03162277660168379,-0.08790237837916604,0.503519098997269
12545197,1885.0,1,197183.0,235451,1.23,-0.74,9.91,-0.03,-0.01,-0.0,31.43,10.626705,-30.972547505876303,277.75894754763266,10.013420993846209,0.03162277660168379,-0.9773940177799448,0.6780751002140688
12585196,1887.0,1,197272.0,235676,1.23,-0.74,9.92,-0.03,-0.01,-0.0,31.43,10.666704,-27.572085850054904,350.1119788315271,10.023317813977567,0.03162277660168379,-0.8692965784209332,0.8526032462831795
12625196,1875.0,1,197402.0,235814,1.23,-0.73,9.9,-0.03,-0.01,-0.0,31.43,10.706704,-33.92724068535027,427.276859658492,10.00278961090355,0.03162277660168379,-1.0713209015740575,1.0387384137170264
12665194,1885.0,1,197375.0,235923,1.21,-0.76,9.93,-0.03,-0.01,-0.0,31.43,10.746702,-29.326860995912508,511.8665257702693,10.032277906836512,0.03162277660168379,-0.9250792100507621,1.2427834598073044
12705197,1891.0,1,197445.0,236083,1.23,-0.76,9.94,-0.03,-0.01,-0.0,31.43,10.786705,-15.431843325178932,590.1927968978165,10.044605517390915,0.03162277660168379,-0.48336982406690576,1.4317201034533635
12745196,1904.0,1,197538.0,236368,1.24,-0.75,9.91,-0.03,-0.01,-0.0,31.43,10.826704,-7.276760192912587,627.5042056368383,10.015398144856748,0.03162277660168379,-0.22412749358842296,1.5217217368182092
12785196,1907.0,1,197624.0,236376,1.23,-0.76,9.89,-0.03,-0.01,-0.0,31.43,10.866704,0.8139821793284989,586.5967665407761,9.995128813577143,0.03162277660168379,0.033069505370665504,1.4230458502771568
12825192,1895.0,1,197474.0,235492,1.22,-0.77,9.93,-0.03,-0.01,-0.0,31.43,10.9067,-13.772861683014115,460.3345443113439,10.034251342277608,0.03162277660168379,-0.4306323767398291,1.1184793217815625
12865196,1889.0,1,197212.0,234796,1.23,-0.74,9.89,-0.03,-0.01,-0.0,31.43,10.946704,-16.46458299689785,287.97857173589307,9.993627969861597,0.03162277660168379,-0.5161996352327414,0.70272661835298
12905192,1920.0,1,197038.0,234573,1.25,-0.75,9.91,-0.03,-0.01,-0.0,31.43,10.9867,11.903270722505125,134.74701028105335,10.016641153600343,0.03162277660168379,0.3855874329816033,0.3331053341381592
12945196,1931.0,1,197061.0,234673,1.23,-0.76,9.91,-0.03,-0.01,-0.0,31.43,11.026704,26.339635351507678,48.73392117227355,10.014918871363863,0.03162277660168379,0.8445057234956685,0.12562674321457318
12985192,1927.0,1,197129.0,234789,1.24,-0.75,9.91,-0.03,-0.01,-0.0,31.43,11.0667,19.316995499957958,32.339537730136406,10.015398144856748,0.03162277660168379,0.6212626870116407,0.08608062749102598
13025204,1920.0,1,197176.0,234929,1.25,-0.75,9.91,-0.03,-0.01,-0.0,31.43,11.106712,14.271309551283112,50.99415125540704,10.016641153600343,0.03162277660168379,0.46086513336542967,0.13107881286665324
13065192,1919.0,1,197159.0,235097,1.23,-0.74,9.92,-0.03,-0.01,-0.0,31.43,11.1467,13.140419532021502,66.47831516036995,10.023317813977567,0.03162277660168379,0.42491521607418054,0.168429320119899
13105196,1927.0,1,197262.0,234995,1.23,-0.76,9.93,-0.03,-0.01,-0.0,31.43,11.186704,17.602498768612858,62.99704108782755,10.034709761622405,0.03162277660168379,0.5667604678407462,0.16003187914116102
13145197,1923.0,1,197184.0,235050,1.24,-0.76,9.93,-0.03,-0.01,-0.0,31.43,11.226705,19.9382218492944,47.23486017665728,10.035940414330886,0.03162277660168379,0.6410108813518575,0.12201074632036066
13185197,1898.0,1,197306.0,235265,1.22,-0.76,9.91,-0.03,-0.01,-0.0,31.43,11.266705,-15.833002214648827,30.886065351782992,10.01369562149759,0.03162277660168379,-0.4961222833259488,0.08257459830254125
13225883,1859.0,1,197398.0,235559,1.24,-0.74,9.93,-0.03,-0.01,-0.0,31.69,11.307391,-43.040781017029715,17.57573230372031,10.034445674774467,0.03162277660168379,-1.3610316741284556,0.0504677506802787
13264196,1908.0,1,197489.0,235727,1.24,-0.77,9.92,-0.03,-0.01,-0.0,31.69,11.345704,-7.8903778209037965,5.168103778213487,10.026809063705162,0.03162277660168379,-0.2436338139193246,0.020538384000752332
13304196,1919.0,1,197489.0,235884,1.23,-0.75,9.91,-0.03,-0.01,-0.0,31.69,11.385704,13.822243405216312,-6.195466434062876,10.014164967684525,0.03162277660168379,0.44658974801899054,-0.006872531709094813
13344196,1915.0,1,197555.0,235993,1.21,-0.74,9.91,-0.03,-0.01,-0.0,31.69,11.425704,0.46859858443391816,-16.349107993220873,10.010983967622764,0.03162277660168379,0.02209008963727565,-0.031364888224426915
13384196,1931.0,1,197597.0,236156,1.21,-0.75,9.9,-0.03,-0.01,-0.0,31.69,11.465704,19.342998339828686,-38.264875082043886,10.001829832585635,0.03162277660168379,0.6220892925407094,-0.08422954547267307
13424196,1958.0,1,197684.0,236509,1.21,-0.75,9.92,-0.03,-0.01,-0.0,31.69,11.505704,46.05890259669235,-104.15292228318268,10.021626614477313,0.03162277660168379,1.4713624597247952,-0.2431630209895243
13464196,1946.0,1,197747.0,236521,1.21,-0.76,9.88,-0.03,-0.01,-0.0,31.69,11.545704,27.697750420611406,-248.83200936872723,9.982790191123923,0.03162277660168379,0.8876789088405678,-0.592154243553992
13504196,1925.0,1,197647.0,235679,1.23,-0.76,9.91,-0.03,-0.01,-0.0,31.69,11.585704,13.591412736542633,-478.86000639282435,10.014918871363863,0.03162277660168379,0.4392518607746405,-1.1470219409014981
13544196,1952.0,1,197312.0,235086,1.22,-0.75,9.91,-0.03,-0.01,-0.0,31.69,11.625704,29.852943328967598,-755.796071681017,10.012941625716191,0.03162277660168379,0.9561904400084527,-1.815040090200258
13584213,1936.0,1,197242.0,234968,1.23,-0.74,9.92,-0.03,-0.01,-0.0,31.69,11.665721,21.246423171518696,-1012.3982667614791,10.023317813977567,0.03162277660168379,0.6825973561931273,-2.434009393765929
13624196,1917.0,1,197263.0,235131,1.24,-0.76,9.92,-0.03,-0.01,-0.0,31.69,11.705704,-5.828280717530962,-1188.9256543196084,10.026046080085608,0.03162277660168379,-0.1780817097799841,-2.859824278564013
13664196,1912.0,1,197374.0,235355,1.21,-0.77,9.91,-0.03,-0.01,-0.0,31.69,11.745704,-8.52647709260171,-1257.8512071778441,10.013246226873681,0.03162277660168379,-0.26385480430483954,-3.0260847481487074
13704196,1939.0,1,197550.0,235973,1.26,-0.75,9.9,-0.03,-0.01,-0.0,31.69,11.785704,15.919938674452947,-1220.07085619208,10.00800179856099,0.03162277660168379,0.5132734839675492,-2.934951944195911
13744196,1953.0,1,197878.0,236560,1.22,-0.77,9.89,-0.03,-0.01,-0.0,31.69,11.825704,27.693948018827662,-1085.929144148583,9.994668578797398,0.03162277660168379,0.8875580341071229,-2.611378710316775
13784216,1917.0,1,198145.0,237237,1.22,-0.76,9.89,-0.03,-0.01,-0.0,31.69,11.865724,-8.880233135827138,-866.4013172348627,9.993903141415771,0.03162277660168379,-0.2751003722014749,-2.081839256862518
13824196,1891.0,1,198610.0,238108,1.24,-0.75,9.92,-0.03,-0.01,-0.0,31.69,11.905704,-36.125803807344724,-582.659612174452,10.02529301317423,0.03162277660168379,-1.141211130552201,-1.3974047160016834
13864196,1913.0,1,199094.0,239046,1.23,-0.76,9.93,-0.03,-0.01,-0.0,31.69,11.945704,-18.651698087758803,-276.53694193406477,10.034709761622405,0.03162277660168379,-0.5857259421977914,-0.6589833788617537
13904196,1907.0,1,199625.0,240144,1.19,-0.77,9.91,-0.03,-0.01,-0.0,31.69,11.985704,-19.798357043098406,0.7343577646368074,10.010849114835365,0.03162277660168379,-0.6221771389575295,0.009843414375297309
13944197,1904.0,1,200032.0,241052,1.24,-0.75,9.9,-0.03,-0.01,-0.0,31.69,12.025705,-34.461089562250535,220.59333115786674,10.005503485582322,0.03162277660168379,-1.0882914492344937,0.540181650964422
13984220,1904.0,1,200359.0,241588,1.25,-0.78,9.9,-0.03,-0.01,-0.0,31.69,12.065728,-22.839400971992937,400.3502723350672,10.009040913094521,0.03162277660168379,-0.7188490308840275,0.9737867830509117
14024219,1923.0,1,200617.0,242161,1.24,-0.78,9.91,-0.03,-0.01,-0.0,31.69,12.105727,-20.173620652299203,587.258346413347,10.017689354337158,0.03162277660168379,-0.6341064119048605,1.4246416964578563
14064197,1915.0,1,200943.0,242978,1.24,-0.77,9.91,-0.03,-0.01,-0.0,31.69,12.145705,-15.410772185476581,808.2641310212424,10.016915692966572,0.03162277660168379,-0.4826999925920233,1.9577462419580962
14104196,1933.0,1,201414.0,243901,1.24,-0.77,9.91,-0.03,-0.01,-0.0,31.69,12.185704,-10.0328575105494,1029.2105928308085,10.016915692966572,0.03162277660168379,-0.3117412039652907,2.490707690509551
14144196,1911.0,1,201888.0,244742,1.26,-0.77,9.9,-0.03,-0.01,-0.0,31.69,12.225704,-27.459253164733443,1167.210214244168,10.00952046803442,0.03162277660168379,-0.8657097347527005,2.8235868754743136
14184197,1922.0,1,201920.25,244807,1.24,-0.77,9.91,-0.03,-0.01,-0.0,31.69,12.265705,-17.612689809577926,1153.1863383718653,10.016915692966572,0.03162277660168379,-0.5526968579992112,2.7897588379579212
14224196,1914.0,1,201920.25,243514,1.25,-0.77,9.92,-0.03,-0.01,-0.0,31.69,12.305704,-32.34075390675738,991.398118760354,10.028050658029207,0.03162277660168379,-1.0208879969567597,2.3994974000670037
14264883,1892.0,1,201613.0,243211,1.27,-0.76,9.89,-0.03,-0.01,-0.0,31.95,12.346391,-47.14067191746458,761.8520958884586,10.000129999155012,0.03162277660168379,-1.4913633034322618,1.8457923085391066
14303196,1970.0,1,201720.0,243496,1.25,-0.8,9.89,-0.03,-0.01,-0.0,31.95,12.384704,21.72540530853344,563.4751201565407,10.000729973356945,0.03162277660168379,0.6978237424167044,1.3672724015922995
14343196,1990.0,1,201779.0,243669,1.25,-0.77,9.92,-0.03,-0.01,-0.0,31.95,12.424704,46.064048177206566,448.63581934765523,10.028050658029207,0.03162277660168379,1.4715260328315969,1.090259954285076
14383196,1985.0,1,201869.0,243931,1.25,-0.76,9.87,-0.03,-0.01,-0.0,31.95,12.464704,38.42840313421081,401.79894954406853,9.977825414387645,0.03162277660168379,1.2287961447914997,0.9772812454535651
14423196,1984.0,1,201920.25,244484,1.26,-0.79,9.91,-0.03,-0.01,-0.0,31.95,12.504704,36.596347233553786,370.32853019036264,10.020968017112919,0.03162277660168379,1.1705568315251502,0.9013690984659881
14463195,1931.0,1,201920.25,244608,1.24,-0.77,9.92,-0.03,-0.01,-0.0,31.95,12.544703,-17.916809799556766,312.10647069021786,10.026809063705162,0.03162277660168379,-0.5623645430084868,0.760927323953251
14503196,1923.0,1,201920.25,244662,1.28,-0.78,9.91,-0.03,-0.01,-0.0,31.95,12.584704,-21.206806008619537,220.4601902667632,10.022719191915934,0.03162277660168379,-0.6669503909599569,0.5398604918854178
14543196,1953.0,1,201920.25,244638,1.24,-0.79,9.91,-0.03,-0.01,-0.0,31.95,12.624704,-2.2804190767477506,115.62140749330912,10.018472937528953,0.03162277660168379,-0.06529856519955016,0.2869710404151782
14583196,1940.0,1,201920.25,244824,1.26,-0.8,9.89,-0.03,-0.01,-0.0,31.95,12.664704,0.23933263453141876,20.713091914125016,10.001984803027847,0.03162277660168379,0.014801943313306837,0.05803560992044746
14623196,1984.0,1,201920.25,245045,1.27,-0.79,9.91,-0.03,-0.01,-0.0,31.95,12.704704,26.958257156022874,-54.10436638185525,10.02223029070875,0.03162277660168379,0.8641711218351157,-0.12243716445116418
14663195,1957.0,1,201920.25,245202,1.26,-0.77,9.9,-0.03,-0.01,-0.0,31.95,12.744703,15.17744979834689,-110.55844470827326,10.00952046803442,0.03162277660168379,0.48967046932328384,-0.258614259640033
14703196,1978.0,1,201920.25,245296,1.27,-0.79,9.91,-0.03,-0.01,-0.0,31.95,12.784704,27.30031728016556,-152.6552783837054,10.02223029070875,0.03162277660168379,0.8750448875966997,-0.3601591736039668
14743196,1994.0,1,201920.25,245442,1.27,-0.79,9.89,-0.03,-0.01,-0.0,31.95,12.824704,45.89847800745484,-181.70288257243442,10.00245469872271,0.03162277660168379,1.466262714730727,-0.43022706733071786
14783196,1957.0,1,201920.25,245570,1.26,-0.77,9.92,-0.03,-0.01,-0.0,31.95,12.864704,13.886892693245322,-200.5878892816003,10.029302069436337,0.03162277660168379,0.44864488734995617,-0.4757810012981964
14823196,1964.0,1,201920.25,245624,1.26,-0.78,9.88,-0.03,-0.01,-0.0,31.95,12.904704,13.592162041638133,-220.18127356850778,9.99051550221509,0.03162277660168379,0.43927568047041143,-0.5230436656832724
14863196,1939.0,1,201920.25,245470,1.29,-0.75,9.89,-0.03,-0.01,-0.0,31.95,12.944704,-1.3467705667877827,-257.31725318375027,10.001934812824967,0.03162277660168379,-0.03561876774756265,-0.6126221333673384
14903196,1937.0,1,201920.25,244074,1.27,-0.77,9.91,-0.03,-0.01,-0.0,31.95,12.984704,-10.14238278277126,-322.29522105973797,10.020673630051025,0.03162277660168379,-0.31522290811919973,-0.7693603386297726
14943196,1959.0,1,201773.0,243050,1.25,-0.79,9.9,-0.03,-0.01,-0.0,31.95,13.024704,19.13213188181701,-406.3474018805456,10.009825173298482,0.03162277660168379,0.6153860485506634,-0.9721088763401282
14983193,1945.0,1,201606.0,243005,1.26,-0.78,9.92,-0.03,-0.01,-0.0,31.95,13.064701,1.892386107524571,-482.4821645099138,10.03007477539425,0.03162277660168379,0.06735093978505712,-1.1557592187974903
15023206,1944.0,1,201698.0,243067,1.26,-0.77,9.91,-0.03,-0.01,-0.0,31.95,13.104714,6.286031451444132,-521.5885921152963,10.019411160342708,0.03162277660168379,0.2070207432413834,-1.250090751122281
15063196,1963.0,1,201577.0,243193,1.26,-0.78,9.91,-0.03,-0.01,-0.0,31.95,13.144704,23.11093577263692,-510.9470247511126,10.02018462903753,0.03162277660168379,0.7418684370737042,-1.2244214323614244
15103196,1929.0,1,201642.0,243504,1.24,-0.79,9.9,-0.03,-0.01,-0.0,31.95,13.184704,-6.142168146146902,-459.88102291480106,10.008581318049027,0.03162277660168379,-0.1880598923665399,-1.1012413185568886
15143193,1932.0,1,201742.0,243736,1.23,-0.77,9.9,-0.03,-0.01,-0.0,31.95,13.224701,-3.350282535952457,-389.14583017458455,10.005788324764822,0.03162277660168379,-0.09930850623382641,-0.9306156815693859
15183196,1931.0,1,201742.0,243725,1.24,-0.78,9.9,-0.03,-0.01,-0.0,31.95,13.264704,-2.643077772760273,-314.729944297937,10.007796960370449,0.03162277660168379,-0.07682713995442776,-0.7511115699975901
15223193,1923.0,1,201700.0,243697,1.24,-0.77,9.92,-0.03,-0.01,-0.0,31.95,13.304701,-7.2228188154803235,-240.19117005168903,10.026809063705162,0.03162277660168379,-0.22241274854316023,-0.5713110302189973
15263196,1941.0,1,201718.0,243783,1.26,-0.77,9.89,-0.03,-0.01,-0.0,31.95,13.344704,9.812017947512393,-161.44958264477836,9.999629993154747,0.03162277660168379,0.31910849779286465,-0.38137257118271345
15303883,1899.0,1,201908.0,244101,1.24,-0.78,9.92,-0.03,-0.01,-0.0,31.99,13.385391,-27.724947522298184,-74.96250771550837,10.027581961769249,0.03162277660168379,-0.8741559054824064,-0.17275064369056534
15344196,1888.0,1,201920.25,244377,1.24,-0.75,9.9,-0.03,-0.01,-0.0,31.99,13.425704,-39.46623918389995,19.9824536657082,10.005503485582322,0.03162277660168379,-1.2474003916284746,0.05627318287792279
15384194,1921.0,1,201920.25,244588,1.26,-0.75,9.89,-0.03,-0.01,-0.0,31.99,13.465702,-2.2510696176798755,121.7555780065571,9.998109821361236,0.03162277660168379,-0.06436557383163453,0.30176773086962894
15424201,1906.0,1,201920.25,244689,1.25,-0.82,9.91,-0.03,-0.01,-0.0,31.99,13.505709,-19.426634316223918,220.77698029396032,10.022125523061463,0.03162277660168379,-0.6103604272890147,0.5406246447503195
15464197,1895.0,1,201920.25,244734,1.27,-0.74,9.91,-0.03,-0.01,-0.0,31.99,13.545705,-22.836314766191418,290.80525641074354,10.018413047983199,0.03162277660168379,-0.7187509233391569,0.7095450753971347
15504197,1922.0,1,201920.25,244765,1.26,-0.79,9.88,-0.03,-0.01,-0.0,31.99,13.585705,-2.9327746958431913,293.5604063199342,9.991301216558332,0.03162277660168379,-0.08603632939546664,0.7161909780947949
15544196,1904.0,1,201920.25,244275,1.24,-0.77,9.91,-0.03,-0.01,-0.0,31.99,13.625704,-9.215246944430897,205.09058338808768,10.016915692966572,0.03162277660168379,-0.28575014229900847,0.5027863161840415
15584196,1914.0,1,201578.0,242636,1.26,-0.78,9.91,-0.03,-0.01,-0.0,31.99,13.665704,-8.35230055161009,46.01654051575808,10.02018462903753,0.03162277660168379,-0.25831789785410175,0.11907194654980266
15624211,1905.0,1,201244.0,242085,1.26,-0.77,9.9,-0.03,-0.01,-0.0,31.99,13.705719,-7.105640253503708,-116.10261747011737,10.00952046803442,0.03162277660168379,-0.21868775359261913,-0.2719877724900316
15664197,1921.0,1,201193.0,242085,1.24,-0.78,9.89,-0.03,-0.01,-0.0,31.99,13.745705,3.2183552873327126,-203.69187721714383,9.997904780502763,0.03162277660168379,0.10950223790684287,-0.48326836223108777
15704196,1907.0,1,201173.0,242273,1.27,-0.78,9.91,-0.03,-0.01,-0.0,31.99,13.785704,-4.434013964974145,-179.64528240413037,10.021447001306747,0.03162277660168379,-0.13375929682856086,-0.42526377641735524
15744197,1883.0,1,201223.0,242447,1.26,-0.78,9.9,-0.03,-0.01,-0.0,31.99,13.825705,-33.25808784644736,-70.90761448310579,10.01029470095661,0.03162277660168379,-1.0500491697486487,-0.16296953313028206
15784194,1872.0,1,201337.0,242724,1.24,-0.79,9.88,-0.03,-0.01,-0.0,31.99,13.865702,-34.50962819195427,52.75538022750983,9.988798726573682,0.03162277660168379,-1.0898344460719926,0.13532720470110465
15824197,1881.0,1,201329.0,242602,1.24,-0.79,9.88,-0.03,-0.01,-0.0,31.99,13.905705,-38.86469750706952,126.55141619892369,9.988798726573682,0.03162277660168379,-1.228277954290657,0.3133361300604931
15863196,1882.0,1,201199.0,242442,1.25,-0.76,9.89,-0.03,-0.01,-0.0,31.99,13.944704,-17.29112085276952,129.5543819699526,9.997609714326721,0.03162277660168379,-0.542474486942967,0.32057980789162965
15903196,1943.0,1,201161.0,242382,1.25,-0.77,9.9,-0.03,-0.01,-0.0,31.99,13.984704,20.206827562651515,91.26554216159678,10.008266583180127,0.03162277660168379,0.6495496013110716,0.22822044010413234
15943196,1915.0,1,201105.0,242466,1.27,-0.79,9.9,-0.03,-0.01,-0.0,31.99,14.024704,17.47216114121242,68.20568350547653,10.01234238327875,0.03162277660168379,0.5626171587256452,0.1725960342091403
15983196,1933.0,1,201119.0,242580,1.27,-0.78,9.9,-0.03,-0.01,-0.0,31.99,14.064704,14.865429201868425,109.52819401561058,10.011558320261637,0.03162277660168379,0.4797516315534616,0.2722731454825748
16023208,1920.0,1,201187.0,242796,1.23,-0.77,9.93,-0.03,-0.01,-0.0,31.99,14.104716,15.519365069526536,229.51869239436044,10.035472086553776,0.03162277660168379,0.500539630347049,0.561711180853643
16063196,1929.0,1,201259.0,242966,1.25,-0.76,9.9,-0.03,-0.01,-0.0,31.99,14.144704,21.296921124809177,395.9242571372186,10.007502185860366,0.03162277660168379,0.6842026380624956,0.9631104615029827
16103196,1943.0,1,201330.0,243176,1.26,-0.78,9.91,-0.03,-0.01,-0.0,31.99,14.184704,29.62568419897025,538.1482436706026,10.02018462903753,0.03162277660168379,0.9489660885791066,1.3061795528149178
16143197,1941.0,1,201371.0,243237,1.25,-0.77,9.92,-0.03,-0.01,-0.0,31.99,14.224705,39.795178701751965,576.920093641701,10.028050658029207,0.03162277660168379,1.2722446391383564,1.3997040254603612
16183196,1959.0,1,201357.0,242880,1.26,-0.77,9.91,-0.03,-0.01,-0.0,31.99,14.264704,44.55276842654182,467.6330600171118,10.019411160342708,0.03162277660168379,1.4234838880474283,1.1360846161635754
16223196,1932.0,1,200956.0,241288,1.24,-0.78,9.9,-0.03,-0.01,-0.0,31.99,14.304704,26.817931242528378,234.2019274834042,10.007796960370449,0.03162277660168379,0.8597102946122881,0.5730079616960313
16263193,1954.0,1,200576.0,240727,1.26,-0.77,9.92,-0.03,-0.01,-0.0,31.99,14.344701,47.403459334871386,-33.51176177455243,10.029302069436337,0.03162277660168379,1.5141046386348969,-0.07276420616493963
16303196,1953.0,1,200464.0,240653,1.26,-0.77,9.91,-0.03,-0.01,-0.0,31.99,14.384704,38.42626661921509,-224.85722244669756,10.019411160342708,0.03162277660168379,1.2287282270133963,-0.5343228709127299
16343883,1878.0,1,200400.0,240793,1.26,-0.77,9.92,-0.03,-0.01,-0.0,31.91,14.425391,-21.496447721295848,-270.7586127858815,10.029302069436337,0.03162277660168379,-0.6761578253147209,-0.6450450399184617
16384197,1899.0,1,200400.0,240976,1.27,-0.77,9.9,-0.03,-0.01,-0.0,31.91,14.465705,-19.221806881007836,-184.06971328806287,10.010784185067621,0.03162277660168379,-0.6038491580854854,-0.4359362763234586
16424192,1890.0,1,200478.0,241336,1.25,-0.77,9.91,-0.03,-0.01,-0.0,31.91,14.5057,-11.944889828353054,-52.5764944805108,10.01815851341952,0.03162277660168379,-0.372522891408352,-0.11875167062124511
16464197,1887.0,1,200595.0,241509,1.25,-0.77,9.91,-0.03,-0.01,-0.0,31.91,14.545705,-25.543370871135526,12.875650308434372,10.01815851341952,0.03162277660168379,-0.8048056602436825,0.03913033215815166
16504192,1897.0,1,200507.0,241421,1.26,-0.77,9.89,-0.03,-0.01,-0.0,31.91,14.5857,-14.328622650445961,-52.90363796415195,9.999629993154747,0.03162277660168379,-0.4482994889015623,-0.11954079783105682
16544197,1904.0,1,200376.0,241013,1.28,-0.77,9.91,-0.03,-0.01,-0.0,31.91,14.625705,-1.1522216112635888,-224.99341428182416,10.02194591883233,0.03162277660168379,-0.029434241630018287,-0.5346513894014872
16584196,1911.0,1,199971.0,240694,1.3,-0.8,9.86,-0.03,-0.01,-0.0,31.91,14.665704,-6.61362318650214,-399.7786275535425,9.977454585213605,0.03162277660168379,-0.20304699935186785,-0.9562638455944238
16624194,1891.0,1,199994.0,241198,1.24,-0.79,9.9,-0.03,-0.01,-0.0,31.91,14.705702,-14.464258880009059,-459.73449347951686,10.008581318049027,0.03162277660168379,-0.4526112355360175,-1.1008878639713529
16664192,1909.0,1,200167.0,241710,1.27,-0.77,9.87,-0.03,-0.01,-0.0,31.91,14.7457,-5.541591568390034,-350.70120577991963,9.981117171940221,0.03162277660168379,-0.1689681346096556,-0.8378805341559046
16704197,1901.0,1,200302.0,242061,1.26,-0.77,9.92,-0.03,-0.01,-0.0,31.91,14.785705,-14.005555123482818,-119.76227215549116,10.029302069436337,0.03162277660168379,-0.4380294797264909,-0.2808154986565453
16744192,1885.0,1,200486.0,242597,1.27,-0.81,9.91,-0.03,-0.01,-0.0,31.91,14.8257,-20.530329236221974,111.57957677251744,10.023826614621784,0.03162277660168379,-0.6454458382599318,0.2772214389139351
16784197,1917.0,1,200690.0,242950,1.25,-0.78,9.91,-0.03,-0.01,-0.0,31.91,14.865705,-9.459403154397029,221.46524553699263,10.018932078819578,0.03162277660168379,-0.29351163581732453,0.5422848607044916
16824193,1899.0,1,200675.0,242457,1.26,-0.8,9.92,-0.03,-0.01,-0.0,31.91,14.905701,-0.5837860375299827,161.54161112384932,10.031649914146726,0.03162277660168379,-0.01136421579809025,0.39773859036492304
16863196,1960.0,1,200337.0,240822,1.24,-0.76,9.9,-0.03,-0.01,-0.0,31.91,14.944704,28.38563828012663,-17.51813010215001,10.006258041845614,0.03162277660168379,0.9095462091385873,-0.03418477369107246
16903193,1935.0,1,200016.0,240559,1.27,-0.78,9.91,-0.03,-0.01,-0.0,31.91,14.984701,33.11683454566748,-205.63617558596408,10.021447001306747,0.03162277660168379,1.0599464351003605,-0.4879583494188247
16943197,1938.0,1,200123.0,240788,1.28,-0.81,9.9,-0.03,-0.01,-0.0,31.91,15.024705,8.790953250404346,-308.10890414023606,10.015213427581061,0.03162277660168379,0.2866498229572553,-0.7351404649413477
16983193,1909.0,1,200124.0,240858,1.24,-0.76,9.94,-0.03,-0.01,-0.0,31.91,15.064701,-0.9652485806082287,-300.09834477534844,10.045834957832026,0.03162277660168379,-0.023490546953021184,-0.7158175969132655
17023206,1902.0,1,200118.0,241031,1.24,-0.77,9.93,-0.03,-0.01,-0.0,31.91,15.104714,-21.901100843067375,-225.7433048167418,10.036702645789601,0.03162277660168379,-0.6890213628926991,-0.5364602563209728
17063224,1876.0,1,200194.0,241320,1.27,-0.77,9.88,-0.03,-0.01,-0.0,31.91,15.144732,-42.455808275451105,-152.81604689394533,9.99100595535805,0.03162277660168379,-1.3424359474713956,-0.36054697532478724
17103197,1881.0,1,200204.0,241229,1.26,-0.77,9.91,-0.03,-0.01,-0.0,31.91,15.184705,-39.27861230330188,-122.37023539884584,10.019411160342708,0.03162277660168379,-1.241435911684156,-0.2871063614138103
17143196,1900.0,1,200141.0,241173,1.24,-0.78,9.9,-0.03,-0.01,-0.0,31.91,15.224704,-23.88635048038984,-125.89828070869589,10.007796960370449,0.03162277660168379,-0.7521305592324317,-0.29561662278433853
17183196,1902.0,1,200224.0,241363,1.27,-0.78,9.92,-0.03,-0.01,-0.0,31.91,15.264704,-18.496787258024707,-117.06077747495387,10.031335903058974,0.03162277660168379,-0.5808014743701456,-0.2742990217399149
17223196,1883.0,1,200262.0,241631,1.25,-0.76,9.9,-0.03,-0.01,-0.0,31.91,15.304704,-41.86378303632768,-44.815922567486545,10.007502185860366,0.03162277660168379,-1.3236160286302023,-0.10003181598099276
17263229,1899.0,1,200394.0,241945,1.25,-0.77,9.9,-0.03,-0.01,-0.0,31.91,15.344737,-26.01558767159317,111.34629877545227,10.008266583180127,0.03162277660168379,-0.8198169828575959,0.2766587316489588
17303194,1938.0,1,200560.0,242375,1.24,-0.77,9.88,-0.03,-0.01,-0.0,31.91,15.384702,16.104599182579552,320.56391134781967,9.987236855106623,0.03162277660168379,0.5191436657544979,0.7813281476957847
17343196,1902.0,1,200714.0,242634,1.26,-0.77,9.89,-0.03,-0.01,-0.0,31.91,15.424704,-29.547621520102304,505.6548322186776,9.999629993154747,0.03162277660168379,-0.9320969769870887,1.2277997702469463
17383883,1870.0,1,200761.0,242885,1.26,-0.78,9.92,-0.03,-0.01,-0.0,31.77,15.465391,-49.017794944887996,577.319792815258,10.03007477539425,0.03162277660168379,-1.5510352577620312,1.4006681696642516
17422196,1958.0,1,200765.0,242825,1.27,-0.79,9.92,-0.03,-0.01,-0.0,31.77,15.503704,23.26904081639891,485.1044505640407,10.032118420353699,0.03162277660168379,0.7468944459249309,1.1782286610957142
17462196,1959.0,1,200548.0,241291,1.24,-0.77,9.91,-0.03,-0.01,-0.0,31.77,15.543704,37.95839228037667,255.19346187585194,10.016915692966572,0.03162277660168379,1.2138549471210498,0.623643208286942
17502196,1968.0,1,200000.0,240272,1.24,-0.77,9.9,-0.03,-0.01,-0.0,31.77,15.583704,35.962748883203666,-16.178491153923666,10.00702253420067,0.03162277660168379,1.1504153430488164,-0.030953330614160744
17542193,1997.0,1,199831.0,240226,1.25,-0.78,9.89,-0.03,-0.01,-0.0,31.77,15.623701,70.04396877422215,-217.22625678716742,9.99914996387193,0.03162277660168379,2.2338248836750285,-0.5159156491883333
17582195,1990.0,1,199854.0,240110,1.24,-0.75,9.88,-0.03,-0.01,-0.0,31.77,15.663703,62.54735448310103,-286.6337163865182,9.98571479664826,0.03162277660168379,1.9955146509026445,-0.683338561985324
17622195,1971.0,1,199835.0,240208,1.26,-0.78,9.91,-0.03,-0.01,-0.0,31.77,15.703703,39.55224980975106,-241.63341472794076,10.02018462903753,0.03162277660168379,1.2645221608899502,-0.5747899762293809
17662196,1965.0,1,199921.0,240390,1.25,-0.77,9.91,-0.03,-0.01,-0.0,31.77,15.743704,39.48623914198619,-149.80841543042388,10.01815851341952,0.03162277660168379,1.262423744592991,-0.3532920430286145
17702196,1968.0,1,199939.0,240333,1.25,-0.77,9.9,-0.03,-0.01,-0.0,31.77,15.783704,35.77098517558289,-72.45287782053701,10.008266583180127,0.03162277660168379,1.1443193573110242,-0.16669697814101336
17742195,1941.0,1,199885.0,240296,1.27,-0.78,9.91,-0.03,-0.01,-0.0,31.77,15.823703,15.101813843005393,-25.403875793706256,10.021447001306747,0.03162277660168379,0.48726607429595237,-0.05320656934355323
17782196,1942.0,1,199879.0,240458,1.25,-0.77,9.91,-0.03,-0.01,-0.0,31.77,15.863704,10.160374484637599,18.27951598309539,10.01815851341952,0.03162277660168379,0.3301824205300146,0.05216539981280884
17822196,1947.0,1,199998.0,240705,1.25,-0.78,9.93,-0.03,-0.01,-0.0,31.77,15.903704,21.89161585944528,95.39242725987735,10.038715057217233,0.03162277660168379,0.7031074176251169,0.23817520761645736
17862197,1951.0,1,200082.0,240989,1.27,-0.77,9.91,-0.03,-0.01,-0.0,31.77,15.943705,17.409085834323534,219.28341521599054,10.020673630051025,0.03162277660168379,0.5606120547569532,0.5370219049691921
17903196,1928.0,1,200210.0,241173,1.27,-0.77,9.91,-0.03,-0.01,-0.0,31.77,15.984704,6.499893587525323,366.8251071361397,10.020673630051025,0.03162277660168379,0.21381921698586703,0.8929182302756817
17943196,1926.0,1,200188.0,241187,1.25,-0.78,9.92,-0.03,-0.01,-0.0,31.77,16.024704,-10.968498565442188,486.615988066244,10.02882346040651,0.03162277660168379,-0.34148434252411786,1.1818747535025182
17983196,1897.0,1,200102.0,241316,1.24,-0.77,9.89,-0.03,-0.01,-0.0,31.77,16.064704,-21.034136938089173,520.2121853026116,9.997129588036758,0.03162277660168379,-0.6614614055603187,1.2629146479559885
18023206,1920.0,1,200162.0,241411,1.26,-0.76,9.88,-0.03,-0.01,-0.0,31.77,16.104714,-17.73095925342367,430.09600401589137,9.988973921279403,0.03162277660168379,-0.556456531046032,1.0455386821987647
18063197,1900.0,1,199990.0,240234,1.26,-0.77,9.9,-0.03,-0.01,-0.0,31.77,16.144705,-19.101245364491668,225.73081563462037,10.00952046803442,0.03162277660168379,-0.6000166222301476,0.5525741606530414
18103197,1923.0,1,199438.0,239075,1.26,-0.76,9.9,-0.03,-0.01,-0.0,31.77,16.184705,-10.224137275130113,-30.104483249556555,10.008756166477431,0.03162277660168379,-0.31782180561447326,-0.06454525536831979
18143197,1920.0,1,199201.0,238732,1.25,-0.79,9.89,-0.03,-0.01,-0.0,31.77,16.224705,-4.804085185275285,-248.90111231468995,9.99993499978875,0.03162277660168379,-0.14552350867507108,-0.592320931926722
18183197,1921.0,1,199115.0,238783,1.25,-0.79,9.9,-0.03,-0.01,-0.0,31.77,16.264705,-5.452923022349244,-366.00613346949297,10.009825173298482,0.03162277660168379,-0.1661494459288739,-0.8747986923585951
18223197,1915.0,1,199134.0,238737,1.24,-0.79,9.9,-0.03,-0.01,-0.0,31.77,16.304705,-14.990351924613261,-376.6016146819286,10.008581318049027,0.03162277660168379,-0.46933523267003713,-0.900356843273664
18263197,1872.0,1,199008.0,238796,1.28,-0.79,9.9,-0.03,-0.01,-0.0,31.77,16.344705,-51.51335221616163,-330.7656506080222,10.01361573059402,0.03162277660168379,-1.630366648056235,-0.7897924938448111
18303196,1857.0,1,199084.0,238973,1.27,-0.77,9.89,-0.03,-0.01,-0.0,31.77,16.384704,-72.45669037013732,-293.23323368845314,10.000894959952335,0.03162277660168379,-2.296135433361888,-0.6992577501550408
18343196,1863.0,1,199047.0,238832,1.25,-0.77,9.91,-0.03,-0.01,-0.0,31.77,16.424704,-64.50659705173625,-298.4230797680474,10.01815851341952,0.03162277660168379,-2.0434095339496348,-0.7117765651733309
18383883,1869.0,1,198891.0,238783,1.26,-0.76,9.91,-0.03,-0.01,-0.0,31.85,16.465391,-53.94785498412069,-330.2543508069929,10.018647613325863,0.03162277660168379,-1.7077571738039021,-0.788559149439253
18422196,1904.0,1,198867.0,238867,1.25,-0.75,9.91,-0.03,-0.01,-0.0,31.85,16.503704,-31.91812969692589,-336.29696339085586,10.016641153600343,0.03162277660168379,-1.0074531755948721,-0.803134986179769
18462196,1908.0,1,198977.0,239213,1.26,-0.78,9.89,-0.03,-0.01,-0.0,31.85,16.543704,-7.143020526791367,-263.83858345126146,10.000404991799083,0.03162277660168379,-0.21987603690056895,-0.6283527207566529
18502196,1938.0,1,199140.0,239511,1.24,-0.74,9.94,-0.03,-0.01,-0.0,31.85,16.583704,-4.656546584185938,-95.59158282820555,10.04434169072319,0.03162277660168379,-0.14083339697889416,-0.22251157520444506
18542196,1923.0,1,199227.0,239858,1.25,-0.76,9.9,-0.03,-0.01,-0.0,31.85,16.623704,10.605155397330332,132.50645769842305,10.007502185860366,0.03162277660168379,0.3443215823863287,0.3277007300534666
18582196,1973.0,1,199363.0,240253,1.25,-0.77,9.9,-0.03,-0.01,-0.0,31.85,16.663704,30.906973564311613,339.4638988675021,10.008266583180127,0.03162277660168379,0.9896970579268194,0.8269182179942459
18622196,1931.0,1,199525.0,240648,1.26,-0.77,9.9,-0.03,-0.01,-0.0,31.85,16.703704,12.919063186434892,433.8669798814956,10.00952046803442,0.03162277660168379,0.417878508542773,1.0546349344914003
18662196,1942.0,1,199607.0,240320,1.25,-0.76,9.91,-0.03,-0.01,-0.0,31.85,16.743704,8.083578175755262,363.66031477136306,10.017394870923278,0.03162277660168379,0.26416304263875023,0.8852841984415366
18702242,1950.0,1,199169.0,238795,1.27,-0.76,9.9,-0.03,-0.01,-0.0,31.85,16.78375,21.275653577578822,152.86238860282873,10.01001998000004,0.03162277660168379,0.6835265629792455,0.37680279003927475
18742196,1949.0,1,198837.0,238016,1.25,-0.78,9.91,-0.03,-0.01,-0.0,31.85,16.823704,24.56998151941331,-105.17430109838045,10.018932078819578,0.03162277660168379,0.7882501125924322,-0.24562676504955255
18782196,1967.0,1,198694.0,237858,1.25,-0.79,9.88,-0.03,-0.01,-0.0,31.85,16.863704,30.51750577391203,-300.02832099046134,9.990045044943493,0.03162277660168379,0.9773162475792204,-0.715648687316249
18822196,1951.0,1,198671.0,237917,1.25,-0.77,9.89,-0.03,-0.01,-0.0,31.85,16.903704,30.456770712903687,-366.2608188456417,9.998374867947291,0.03162277660168379,0.9753855377995422,-0.8754130379601739
18862196,1965.0,1,198730.0,237994,1.25,-0.78,9.91,-0.03,-0.01,-0.0,31.85,16.943704,28.076650996005423,-311.59461503516314,10.018932078819578,0.03162277660168379,0.8997237974813884,-0.7435486083104554
18902224,1936.0,1,198815.0,238291,1.25,-0.77,9.92,-0.03,-0.01,-0.0,31.85,16.983732,13.146213697155147,-197.52116659000245,10.028050658029207,0.03162277660168379,0.42509940706868804,-0.46838353064112687
18942196,1931.0,1,198890.0,238419,1.27,-0.77,9.93,-0.03,-0.01,-0.0,31.85,17.023704,-1.84581150729114,-94.47918937652857,10.040453177023435,0.03162277660168379,-0.05148280424136487,-0.21982828794784304
18982196,1915.0,1,198900.0,238432,1.24,-0.77,9.92,-0.03,-0.01,-0.0,31.85,17.063704,-11.094211401250298,-43.90858989532516,10.026809063705162,0.03162277660168379,-0.3454806339165388,-0.09784317113321969
19022196,1909.0,1,198922.0,238451,1.24,-0.76,9.91,-0.03,-0.01,-0.0,31.85,17.103704,-20.881910153120387,-43.910988290048415,10.016151955716326,0.03162277660168379,-0.6566222609609935,-0.09784895648011069
19062196,1934.0,1,198969.0,238641,1.24,-0.77,9.88,-0.03,-0.01,-0.0,31.85,17.143704,8.049402251767468,-56.24814747457777,9.987236855106623,0.03162277660168379,0.2630766225450302,-0.12760833880352554
19102196,1952.0,1,199037.0,238919,1.24,-0.77,9.87,-0.03,-0.01,-0.0,31.85,17.183704,22.318150470837242,-26.814242674823493,9.977344336044537,0.03162277660168379,0.7166665469305536,-0.056608620545428125
19142196,1930.0,1,199093.0,239136,1.26,-0.76,9.88,-0.03,-0.01,-0.0,31.85,17.223704,6.609246526768185,84.64084656963972,9.988973921279403,0.03162277660168379,0.21729544283840635,0.21224051750213568
19182196,1952.0,1,199197.0,239569,1.26,-0.77,9.91,-0.03,-0.01,-0.0,31.85,17.263704,22.307262676889412,272.51538613673887,10.019411160342708,0.03162277660168379,0.7163204343243391,0.6654267144366711
19222196,1939.0,1,199399.0,240143,1.27,-0.76,9.91,-0.03,-0.01,-0.0,31.85,17.303704,18.024472352142663,470.40923938619136,10.019910179238135,0.03162277660168379,0.5801746064117925,1.1427812455907467
19262196,1933.0,1,199634.0,240616,1.24,-0.77,9.92,-0.03,-0.01,-0.0,31.85,17.343704,4.341993819600347,575.5703217209386,10.026809063705162,0.03162277660168379,0.14522163732877505,1.3964481398842274
19302196,1936.0,1,199702.0,240489,1.27,-0.77,9.89,-0.03,-0.01,-0.0,31.85,17.383704,17.440015033463336,510.3742037447453,10.000894959952335,0.03162277660168379,0.5615952645581029,1.2391837184857437
19342196,1932.0,1,199336.0,238827,1.26,-0.76,9.87,-0.03,-0.01,-0.0,31.85,17.423704,4.454937302462105,280.3152011001896,9.97908312421537,0.03162277660168379,0.14881200314535278,0.6842412301673504
19382197,1917.0,1,198877.0,238050,1.27,-0.76,9.9,-0.03,-0.01,-0.0,31.85,17.463705,1.2926784989276785,-21.350894496120063,10.01001998000004,0.03162277660168379,0.048286805730652915,-0.04343007070391776
19422883,1940.0,1,198706.0,237984,1.27,-0.78,9.9,-0.03,-0.01,-0.0,31.77,17.504391,14.080812651315366,-271.65246094229815,10.011558320261637,0.03162277660168379,0.4548094182371351,-0.6472011577595316
19463192,1915.0,1,198726.0,238073,1.24,-0.75,9.93,-0.03,-0.01,-0.0,31.77,17.5447,1.236721957017814,-392.98719028615614,10.035188089916401,0.03162277660168379,0.04650800052475199,-0.9398817129541089
19503197,1932.0,1,198768.0,238161,1.25,-0.78,9.89,-0.03,-0.01,-0.0,31.77,17.584705,9.149161439736485,-387.2065275724651,9.99914996387193,0.03162277660168379,0.298036920340913,-0.9259377450433146
19543192,1917.0,1,198718.0,238522,1.27,-0.79,9.9,-0.03,-0.01,-0.0,31.77,17.6247,4.261142763919904,-311.6503188164295,10.01234238327875,0.03162277660168379,0.14265145922558523,-0.7436829755581151
19583194,1885.0,1,198842.0,238804,1.25,-0.77,9.91,-0.03,-0.01,-0.0,31.77,17.664702,-34.831790542975135,-228.19461564503106,10.01815851341952,0.03162277660168379,-1.1000756805654375,-0.5423732460977494
19623197,1887.0,1,198882.0,238968,1.26,-0.79,9.92,-0.03,-0.01,-0.0,31.77,17.704705,-23.7903760772232,-166.89704446676632,10.030857391070816,0.03162277660168379,-0.7490796243075921,-0.3945128003576789
19663197,1919.0,1,198929.0,239183,1.25,-0.8,9.91,-0.03,-0.01,-0.0,31.77,17.744705,0.6144533076638639,-121.34675953803051,10.020508969109304,0.03162277660168379,0.026726672459076645,-0.28463755891355697
19703192,1882.0,1,199002.0,239539,1.26,-0.76,9.91,-0.03,-0.01,-0.0,31.77,17.7847,-25.97559195721877,-65.82610075470998,10.018647613325863,0.03162277660168379,-0.8185455571669678,-0.150712034660566
19743197,1874.0,1,199145.0,239810,1.26,-0.77,9.9,-0.03,-0.01,-0.0,31.77,17.824705,-43.23154024021127,23.40645481953938,10.00952046803442,0.03162277660168379,-1.3670957282620284,0.06453247157547419
19783192,1889.0,1,199238.0,240121,1.25,-0.76,9.88,-0.03,-0.01,-0.0,31.77,17.8647,-17.647349861164912,152.14926716522322,9.98771745695682,0.03162277660168379,-0.5537986680484998,0.3750826166032914
19823197,1909.0,1,199332.0,240339,1.25,-0.78,9.89,-0.03,-0.01,-0.0,31.77,17.904705,-5.2224763433757975,298.6870715329867,9.99914996387193,0.03162277660168379,-0.1588237653515993,0.7285573898300586
19863192,1907.0,1,199349.0,240482,1.27,-0.77,9.91,-0.03,-0.01,-0.0,31.77,17.9447,-1.2777136964858546,413.58318722539457,10.020673630051025,0.03162277660168379,-0.03342351557143346,1.0057068845576091
19903197,1937.0,1,199475.0,240720,1.26,-0.76,9.93,-0.03,-0.01,-0.0,31.77,17.984705,27.421458678885664,437.05285874309885,10.038431152326543,0.03162277660168379,0.8788958573553483,1.0623198306381103
19943192,1924.0,1,199528.0,240450,1.25,-0.76,9.92,-0.03,-0.01,-0.0,31.77,18.0247,13.069280582611533,334.3388275873402,10.027287768883468,0.03162277660168379,0.4226537765850032,0.814555651103454
19983197,1879.0,1,199123.0,238868,1.24,-0.78,9.92,-0.03,-0.01,-0.0,31.77,18.064705,-27.97265914350713,128.03060523429517,10.027581961769249,0.03162277660168379,-0.8820304221399655,0.31690419231646394
20023205,1890.0,1,198768.0,238344,1.26,-0.78,9.91,-0.03,-0.01,-0.0,31.77,18.104713,-20.40063202239296,-103.37310800283895,10.02018462903753,0.03162277660168379,-0.6413228872826982,-0.24128197277065164
20063197,1905.0,1,198689.0,238256,1.26,-0.77,9.91,-0.03,-0.01,-0.0,31.77,18.144705,-4.82937288323379,-268.01968853221996,10.019411160342708,0.03162277660168379,-0.14632738052344757,-0.6384382763353349
20103192,1905.0,1,198656.0,238280,1.26,-0.77,9.93,-0.03,-0.01,-0.0,31.77,18.1847,-0.5538088853007453,-314.278827986016,10.03919319467456,0.03162277660168379,-0.010411270662035453,-0.7500233986772735
20143197,1908.0,1,198714.0,238516,1.24,-0.79,9.92,-0.03,-0.01,-0.0,31.77,18.224705,-8.457369126664483,-254.7054560660241,10.02836477198551,0.03162277660168379,-0.26165792784709885,-0.6063220226356011
20183192,1882.0,1,198772.0,238776,1.23,-0.77,9.92,-0.03,-0.01,-0.0,31.77,18.2647,-18.4780810493028,-146.93036044804472,10.025577290111528,0.03162277660168379,-0.5802068218001066,-0.34634967183218596
20221195,1935.0,1,198800.0,238850,1.25,-0.76,9.91,-0.03,-0.01,-0.0,31.77,18.302703,13.394102280241897,-52.166621790581594,10.017394870923278,0.03162277660168379,0.4329795491759039,-0.11776298611931979
20261196,1930.0,1,198813.0,238807,1.25,-0.77,9.92,-0.03,-0.01,-0.0,31.77,18.342704,29.940739623266975,-1.7758151830711006,10.028050658029207,0.03162277660168379,0.9589814006366149,0.0037884388877144617
20301196,1922.0,1,198831.0,238844,1.25,-0.77,9.89,-0.03,-0.01,-0.0,31.77,18.382704,0.30594599572360115,12.317772317983486,9.998374867947291,0.03162277660168379,0.016919518660655518,0.03778463302601555
20341201,1927.0,1,198850.0,238967,1.24,-0.77,9.91,-0.03,-0.01,-0.0,31.77,18.422709,21.05401427857996,25.5740084515,10.016915692966572,0.03162277660168379,0.6764808606281875,0.06976098944374576
20381196,1985.0,1,198891.0,239076,1.26,-0.79,9.9,-0.03,-0.01,-0.0,31.77,18.462704,68.17388348478048,76.27966986848881,10.011078862939797,0.03162277660168379,2.174376652336931,0.1920718992326073
20421193,1947.0,1,198886.0,239174,1.26,-0.75,9.89,-0.03,-0.01,-0.0,31.77,18.502701,30.891657444417696,177.50220777481766,9.998109821361236,0.03162277660168379,0.9892101730538159,0.4362383365983669
20461882,1887.0,1,198924.0,239191,1.28,-0.77,9.91,-0.03,-0.01,-0.0,31.89,18.54339,-23.52952452545333,297.7424781876479,10.02194591883233,0.03162277660168379,-0.7407874017645515,0.726278865731955
20502197,1907.0,1,199000.0,239307,1.26,-0.75,9.92,-0.03,-0.01,-0.0,31.89,18.583705,-18.60803535591783,366.97658298722746,10.027786395810393,0.03162277660168379,-0.5843379455122978,0.8932836164799011
20542229,1901.0,1,199027.0,239277,1.25,-0.77,9.9,-0.03,-0.01,-0.0,31.89,18.623737,-6.893787062492838,315.92170997029905,10.008266583180127,0.03162277660168379,-0.21195314229973608,0.770130347331082
20582196,1919.0,1,198884.0,238320,1.26,-0.76,9.91,-0.03,-0.01,-0.0,31.89,18.663704,-11.046554783585579,129.2141061376279,10.018647613325863,0.03162277660168379,-0.34396567540222994,0.3197590031635633
20622196,1892.0,1,198403.0,237111,1.23,-0.78,9.92,-0.03,-0.01,-0.0,31.89,18.703704,-19.146340711363447,-129.58373336379606,10.026350283128952,0.03162277660168379,-0.601450160383857,-0.30450657815879
20662196,1917.0,1,198065.0,236740,1.26,-0.78,9.9,-0.03,-0.01,-0.0,31.89,18.743704,-12.381411384958028,-349.8599364583961,10.01029470095661,0.03162277660168379,-0.38639949619618313,-0.83585124564615
20702196,1920.0,1,198061.0,236937,1.25,-0.78,9.91,-0.03,-0.01,-0.0,31.89,18.783704,1.973074416381045,-443.70292453164575,10.018932078819578,0.03162277660168379,0.06991594432162114,-1.0622169201642773
20742215,1918.0,1,198188.0,237067,1.28,-0.76,9.91,-0.03,-0.01,-0.0,31.89,18.823723,-8.847934381327839,-397.99206335379046,10.021182564947113,0.03162277660168379,-0.2740736255390379,-0.9519543407667308
20782196,1903.0,1,198227.0,237370,1.25,-0.76,9.92,-0.03,-0.01,-0.0,31.89,18.863704,-21.8908132891572,-268.5812879827368,10.027287768883468,0.03162277660168379,-0.6886943313459519,-0.6397929522790082
20822197,1899.0,1,198347.0,237681,1.27,-0.78,9.92,-0.03,-0.01,-0.0,31.89,18.903705,-26.250833651195787,-128.62637692379334,10.031335903058974,0.03162277660168379,-0.8272952286337278,-0.3021972672476079
20862196,1879.0,1,198393.0,237803,1.26,-0.77,9.92,-0.03,-0.01,-0.0,31.89,18.943704,-50.69578647101756,-19.07651177700204,10.029302069436337,0.03162277660168379,-1.604377011206068,-0.037943862422445934
20902196,1856.0,1,198417.0,237858,1.24,-0.77,9.91,-0.03,-0.01,-0.0,31.89,18.983704,-69.44872664278256,61.972298389894895,10.016915692966572,0.03162277660168379,-2.2005151295554346,0.15756002080855988
20942196,1901.0,1,198446.0,238108,1.25,-0.79,9.91,-0.03,-0.01,-0.0,31.89,19.023704,-31.127621063025515,134.49518920936293,10.019715564825182,0.03162277660168379,-0.9823236585572275,0.3324978977391116
20981197,1954.0,1,198629.0,238454,1.26,-0.77,9.9,-0.03,-0.01,-0.0,31.89,19.062705,26.919820182987365,208.08174887251005,10.00952046803442,0.03162277660168379,0.8629492470479858,0.5100015296632637
21021207,1967.0,1,198683.0,238624,1.24,-0.77,9.9,-0.03,-0.01,-0.0,31.89,19.102715,34.35071572596363,275.26024357888843,10.00702253420067,0.03162277660168379,1.0991703433702718,0.6720477899065112
21061193,1961.0,1,198648.0,238641,1.24,-0.78,9.9,-0.03,-0.01,-0.0,31.89,19.142701,31.635957962667128,323.34791743294244,10.007796960370449,0.03162277660168379,1.012870778077434,0.7880436565287887
21101195,1983.0,1,198646.0,238619,1.27,-0.76,9.91,-0.03,-0.01,-0.0,31.89,19.182703,50.86636188830111,343.1538395369281,10.019910179238135,0.03162277660168379,1.6241870146954245,0.8358189992429685
21141196,1967.0,1,198521.0,238669,1.24,-0.78,9.9,-0.03,-0.01,-0.0,31.89,19.222704,36.081228534795166,323.4615444794996,10.007796960370449,0.03162277660168379,1.1541816983997915,0.7883177448071514
21181196,1953.0,1,198493.0,238764,1.26,-0.79,9.91,-0.03,-0.01,-0.0,31.89,19.262704,20.625047313825995,244.20103008922496,10.020968017112919,0.03162277660168379,0.6628444091245724,0.5971275432696256
21221196,1968.0,1,198498.0,238551,1.27,-0.75,9.92,-0.03,-0.01,-0.0,31.89,19.302704,38.28874588099768,87.05991097185446,10.029047811233129,0.03162277660168379,1.2243565736425623,0.21807572326820426
21261196,1972.0,1,198184.0,237243,1.23,-0.78,9.91,-0.03,-0.01,-0.0,31.89,19.342704,37.174456454037816,-139.53490504304443,10.016456459247452,0.03162277660168379,1.1889343733795554,-0.3285105419675773
21301196,1962.0,1,197732.0,236273,1.24,-0.77,9.9,-0.03,-0.01,-0.0,31.89,19.382704,36.27859786380439,-387.3719539480496,10.00702253420067,0.03162277660168379,1.160455881505894,-0.9263367823487235
21341196,1984.0,1,197603.0,236106,1.25,-0.76,9.92,-0.03,-0.01,-0.0,31.89,19.422704,46.29238189504401,-586.814816729993,10.027287768883468,0.03162277660168379,1.478784544385549,-1.4074277949901917
21381196,1968.0,1,197630.0,236085,1.25,-0.78,9.91,-0.03,-0.01,-0.0,31.89,19.462704,45.7657614079326,-684.406907881186,10.018932078819578,0.03162277660168379,1.4620437803562636,-1.642836960817592
21421196,1974.0,1,197537.0,236199,1.25,-0.76,9.9,-0.03,-0.01,-0.0,31.89,19.502704,36.50019560454113,-668.607416650796,10.007502185860366,0.03162277660168379,1.1675002627593558,-1.6047258289915374
21461880,1913.0,1,197636.0,236565,1.25,-0.77,9.92,-0.03,-0.01,-0.0,31.85,19.543388,-8.929813154080836,-566.3423683055855,10.028050658029207,0.03162277660168379,-0.2766764737897468,-1.3580446743993249
21502197,1883.0,1,197848.0,236882,1.27,-0.77,9.91,-0.03,-0.01,-0.0,31.85,19.583705,-50.48578079033163,-419.77895675225454,10.020673630051025,0.03162277660168379,-1.5977011305078892,-1.0045081321693268
21542197,1883.0,1,197882.0,237128,1.25,-0.77,9.94,-0.03,-0.01,-0.0,31.85,19.623705,-40.804033609322374,-264.4701330323893,10.047835587826862,0.03162277660168379,-1.2899276030526516,-0.629876128630367
21582197,1901.0,1,198050.0,237455,1.24,-0.78,9.9,-0.03,-0.01,-0.0,31.85,19.663705,-27.061048490837372,-121.60277483731264,10.007796960370449,0.03162277660168379,-0.8530511871948225,-0.28525511252197067
21622194,1904.0,1,198175.0,237743,1.24,-0.76,9.91,-0.03,-0.01,-0.0,31.85,19.703702,-21.403732674029254,-1.5739697770950718,10.016151955716326,0.03162277660168379,-0.6732105022115737,0.004275325254082983
21662196,1914.0,1,198293.0,237981,1.24,-0.77,9.9,-0.03,-0.01,-0.0,31.85,19.743704,-9.344431434612988,91.82742531968583,10.00702253420067,0.03162277660168379,-0.289856794279535,0.22957580040001213
21702197,1917.0,1,198316.0,238159,1.27,-0.77,9.91,-0.03,-0.01,-0.0,31.85,19.783705,-8.655232129630487,162.3664742833927,10.020673630051025,0.03162277660168379,-0.2679478043783909,0.3997283043470636
21742197,1899.0,1,198388.0,238370,1.25,-0.77,9.92,-0.03,-0.01,-0.0,31.85,19.823705,-20.835247936327175,222.95165667324807,10.028050658029207,0.03162277660168379,-0.655138913503884,0.5458703439289503
21782197,1889.0,1,198422.0,238497,1.24,-0.75,9.88,-0.03,-0.01,-0.0,31.85,19.863705,-35.81422642522174,290.2463467849186,9.98571479664826,0.03162277660168379,-1.1313063821448723,0.7081968877803276
21822197,1878.0,1,198494.0,238747,1.24,-0.74,9.91,-0.03,-0.01,-0.0,31.85,19.903705,-39.02253013457103,371.86439636996437,10.014654262629339,0.03162277660168379,-1.2332953032882585,0.9050738758910607
21862196,1895.0,1,198556.0,238854,1.27,-0.75,9.9,-0.03,-0.01,-0.0,31.85,19.943704,-29.011946718999614,455.3585658251724,10.00926570733338,0.03162277660168379,-0.9150683849342366,1.1064763927451309
21902197,1887.0,1,198548.0,238979,1.25,-0.77,9.94,-0.03,-0.01,-0.0,31.85,19.983705,-26.461203636951712,510.38953694328535,10.047835587826862,0.03162277660168379,-0.8339826902433233,1.2392207048381745
21942196,1907.0,1,198747.0,238962,1.24,-0.78,9.91,-0.03,-0.01,-0.0,31.85,20.023704,-18.15164545724133,506.36141651556466,10.017689354337158,0.03162277660168379,-0.5698297450414027,1.2295041749579718
21981199,1904.0,1,198479.0,237884,1.26,-0.77,9.92,-0.03,-0.01,-0.0,31.85,20.062707,-3.528042800326514,433.4987277294538,10.029302069436337,0.03162277660168379,-0.10495933583977735,1.0537466459948255
22021206,1939.0,1,198274.0,237349,1.25,-0.76,9.9,-0.03,-0.01,-0.0,31.85,20.102714,9.987635066336656,309.9176707655686,10.007502185860366,0.03162277660168379,0.3246911988417093,0.755647556316891
22061196,1925.0,1,198235.0,237212,1.26,-0.78,9.89,-0.03,-0.01,-0.0,31.85,20.142704,24.66387002000715,169.36607553170592,10.000404991799083,0.03162277660168379,0.7912347386599181,0.41661256485990633
22101196,1941.0,1,198098.0,237010,1.27,-0.75,9.89,-0.03,-0.01,-0.0,31.85,20.182704,8.784151852238825,42.48349280562375,9.999374980467529,0.03162277660168379,0.28643361298338443,0.11054961851624702
22141196,1904.0,1,197956.0,236697,1.25,-0.77,9.93,-0.03,-0.01,-0.0,31.85,20.222704,6.668111894918166,-52.17148034048471,10.037943016375417,0.03162277660168379,0.21916671686175698,-0.117774705790108
22181216,1941.0,1,197880.0,236716,1.24,-0.77,9.92,-0.03,-0.01,-0.0,31.85,20.262724,12.34316201792779,-104.82634869805001,10.026809063705162,0.03162277660168379,0.39957115855901243,-0.24478744309893946
22221196,1887.0,1,197899.0,236774,1.24,-0.77,9.9,-0.03,-0.01,-0.0,31.85,20.302704,-16.135367573465484,-109.35423896664713,10.00702253420067,0.03162277660168379,-0.5057341902806984,-0.2557095051073978
22261196,1927.0,1,197918.0,236785,1.26,-0.75,9.91,-0.03,-0.01,-0.0,31.85,20.342704,9.617680695906165,-65.77821557738318,10.017893990255637,0.03162277660168379,0.31293070154136515,-0.1505965272509283
22301196,1945.0,1,197877.0,236918,1.24,-0.75,9.9,-0.03,-0.01,-0.0,31.85,20.382704,31.15645780619441,11.197493095287376,10.005503485582322,0.03162277660168379,0.9976279245083572,0.0350823239126665
22341196,1915.0,1,198027.0,237173,1.23,-0.76,9.93,-0.03,-0.01,-0.0,31.85,20.422704,8.634178907468364,89.39456076795635,10.034709761622405,0.03162277660168379,0.28166611581867923,0.2237073062634697
22381213,1951.0,1,198086.0,237278,1.25,-0.74,9.93,-0.03,-0.01,-0.0,31.85,20.462721,31.18092245646591,132.894191410554,10.035686324312852,0.03162277660168379,0.9984056324541697,0.32863601147493443
22421196,1919.0,1,198084.0,237271,1.24,-0.75,9.89,-0.03,-0.01,-0.0,31.85,20.502704,15.468624670121953,128.09190930951,9.995609035971746,0.03162277660168379,0.49892664134648224,0.317052068451076
22461883,1883.0,1,197972.0,237322,1.26,-0.76,9.91,-0.03,-0.01,-0.0,31.69,20.543391,-34.223982706196935,100.69200679420521,10.018647613325863,0.03162277660168379,-1.0807540479672328,0.2509587188897152
22502197,1890.0,1,198024.0,237464,1.24,-0.76,9.91,-0.03,-0.01,-0.0,31.69,20.583705,-17.788886322245325,102.376761943169,10.016151955716326,0.03162277660168379,-0.5582979774268416,0.2550226425085517
22542198,1921.0,1,198077.0,237631,1.25,-0.76,9.9,-0.03,-0.01,-0.0,31.69,20.623706,10.241408268935142,168.53803500935481,10.007502185860366,0.03162277660168379,0.3327584074020145,0.41461518652382817
22582192,1916.0,1,198035.0,237857,1.25,-0.77,9.9,-0.03,-0.01,-0.0,31.69,20.6637,3.174465135345008,276.359629317555,10.008266583180127,0.03162277660168379,0.10810701175135115,0.6746997002878666
22622194,1898.0,1,198191.0,238162,1.26,-0.79,9.9,-0.03,-0.01,-0.0,31.69,20.703702,-8.126865405951273,341.34151558631334,10.011078862939797,0.03162277660168379,-0.25115152915074473,0.8314473573979109
22662192,1917.0,1,198277.0,238204,1.24,-0.77,9.93,-0.03,-0.01,-0.0,31.69,20.7437,2.3295496115287264,267.3546111522513,10.036702645789601,0.03162277660168379,0.08124795146968006,0.6529780239763041
22702197,1920.0,1,198044.0,237096,1.27,-0.76,9.91,-0.03,-0.01,-0.0,31.69,20.783705,14.94803453548264,20.905584293762406,10.019910179238135,0.03162277660168379,0.48237757648238233,0.058499935154019585
22742197,1926.0,1,197481.0,235673,1.24,-0.79,9.91,-0.03,-0.01,-0.0,31.69,20.823705,12.623631176124908,-329.62642353300987,10.018472937528953,0.03162277660168379,0.4084870061376443,-0.7870444792029159
22782197,1904.0,1,197115.0,235202,1.26,-0.75,9.91,-0.03,-0.01,-0.0,31.69,20.863705,-2.33115230655773,-648.4254443030434,10.017893990255637,0.03162277660168379,-0.06691132628552875,-1.5560433874218034
22822192,1890.0,1,197111.0,235297,1.25,-0.78,9.9,-0.03,-0.01,-0.0,31.69,20.9037,-20.322285422577885,-817.3132957401083,10.009040913094521,0.03162277660168379,-0.6388323234476389,-1.963430377045658
22862194,1900.0,1,197211.0,235553,1.25,-0.78,9.92,-0.03,-0.01,-0.0,31.69,20.943702,-8.989915808826776,-804.1568057222448,10.02882346040651,0.03162277660168379,-0.27858707997628984,-1.9316946256769991
22902192,1904.0,1,197288.0,236029,1.26,-0.77,9.89,-0.03,-0.01,-0.0,31.69,20.9837,-1.835989268252599,-665.2233630014415,9.999629993154747,0.03162277660168379,-0.05117056461148381,-1.596562900650597
22942197,1904.0,1,197528.0,236563,1.24,-0.78,9.89,-0.03,-0.01,-0.0,31.69,21.023705,-8.844178677073359,-491.05403695677506,9.997904780502763,0.03162277660168379,-0.2739542352756,-1.1764360719983125
22982193,1913.0,1,197623.0,236856,1.24,-0.76,9.93,-0.03,-0.01,-0.0,31.69,21.063701,12.165257206077905,-346.5212700052006,10.035940414330886,0.03162277660168379,0.3939157339263903,-0.8277977991480618
23022197,1927.0,1,197776.0,237103,1.26,-0.76,9.91,-0.03,-0.01,-0.0,31.69,21.103705,11.58222316464746,-247.74742114776487,10.018647613325863,0.03162277660168379,0.3753816367017171,-0.5895380273693483
23062192,1902.0,1,197757.0,237441,1.25,-0.79,9.91,-0.03,-0.01,-0.0,31.69,21.1437,2.529608899968882,-179.33096486998568,10.019715564825182,0.03162277660168379,0.08760764582569329,-0.42450558763745405
23102197,1927.0,1,198022.0,237804,1.25,-0.77,9.92,-0.03,-0.01,-0.0,31.69,21.183705,15.049722110012018,-123.31540812900242,10.028050658029207,0.03162277660168379,0.485610127686845,-0.28938628308926917
23142192,1921.0,1,198071.0,238143,1.25,-0.78,9.9,-0.03,-0.01,-0.0,31.69,21.2237,15.76902805927637,-71.2137728315816,10.009040913094521,0.03162277660168379,0.5084761791531414,-0.16370804052955612
23182194,1923.0,1,198183.0,238349,1.26,-0.76,9.91,-0.03,-0.01,-0.0,31.69,21.263702,20.605150702012562,-16.52061107966289,10.018647613325863,0.03162277660168379,0.6622119147733215,-0.03177858361756683
23222193,1911.0,1,198176.0,238555,1.23,-0.77,9.91,-0.03,-0.01,-0.0,31.69,21.303701,-2.660844903863209,51.863731903617904,10.015682702641893,0.03162277660168379,-0.07739194014080697,0.1331763932402291
23262197,1883.0,1,198353.0,238772,1.23,-0.77,9.93,-0.03,-0.01,-0.0,31.69,21.343705,-12.300578171132994,139.37115346792342,10.035472086553776,0.03162277660168379,-0.3838298852685943,0.3442595749936102
23302192,1933.0,1,198375.0,239073,1.26,-0.76,9.91,-0.03,-0.01,-0.0,31.69,21.3837,18.382947465082484,228.0860499656868,10.018647613325863,0.03162277660168379,0.5915701890428712,0.5582553971412056
23342197,1909.0,1,198560.0,239559,1.24,-0.77,9.92,-0.03,-0.01,-0.0,31.69,21.423705,9.920238988696385,276.89729427303456,10.026809063705162,0.03162277660168379,0.32254874168349307,0.6759966420499607
23382193,1904.0,1,198735.0,239500,1.26,-0.78,9.91,-0.03,-0.01,-0.0,31.69,21.463701,-0.8659038443351387,250.24901095985777,10.02018462903753,0.03162277660168379,-0.02033247234672973,0.6117163292552646
23422197,1879.0,1,198493.0,238235,1.24,-0.77,9.92,-0.03,-0.01,-0.0,31.69,21.503705,-31.307101718297705,153.78386505567164,10.026809063705162,0.03162277660168379,-0.9880291777523011,0.3790255521559024
23462878,1853.0,1,198320.0,237824,1.25,-0.75,9.92,-0.03,-0.01,-0.0,31.83,21.544386,-40.81513195541984,40.55436021225499,10.0265347952321,0.03162277660168379,-1.290280408911292,0.10589621382721515
23501196,1932.0,1,198356.0,238019,1.24,-0.78,9.91,-0.03,-0.01,-0.0,31.83,21.582704,15.013173479601788,-24.09820578358014,10.017689354337158,0.03162277660168379,0.4844482815143815,-0.05005706527714831
23541196,1885.0,1,198454.0,238274,1.24,-0.77,9.91,-0.03,-0.01,-0.0,31.83,21.622704,-6.912898460168147,-10.097584972103474,10.016915692966572,0.03162277660168379,-0.2125606754409306,-0.016285123028371425
23581196,1881.0,1,198551.0,238491,1.25,-0.76,9.92,-0.03,-0.01,-0.0,31.83,21.662704,-32.953636025495655,59.19630689263988,10.027287768883468,0.03162277660168379,-1.0403709361485942,0.15086384456103646
23621196,1897.0,1,198665.0,238828,1.23,-0.77,9.92,-0.03,-0.01,-0.0,31.83,21.702704,-0.9800537546466029,131.75316541254543,10.025577290111528,0.03162277660168379,-0.023961189343613347,0.3258836575166364
23661196,1906.0,1,198698.0,238751,1.24,-0.76,9.91,-0.03,-0.01,-0.0,31.83,21.742704,-1.3514102754473707,169.76931063788473,10.016151955716326,0.03162277660168379,-0.03576625966961232,0.4175852383507409
23701196,1916.0,1,198712.0,238768,1.25,-0.75,9.92,-0.03,-0.01,-0.0,31.83,21.782704,11.60169292532746,174.12272247932302,10.0265347952321,0.03162277660168379,0.3760005618617282,0.428086427924683
23741197,1915.0,1,198650.0,238844,1.26,-0.79,9.9,-0.03,-0.01,-0.0,31.83,21.822705,11.951580931102553,174.9271731111748,10.011078862939797,0.03162277660168379,0.3871231685295521,0.4300269033255038
23781196,1909.0,1,198763.0,239158,1.23,-0.79,9.92,-0.03,-0.01,-0.0,31.83,21.862704,0.08504647207414415,203.52289332255785,10.027133189501374,0.03162277660168379,0.009897333063810812,0.49900477398888
23821218,1926.0,1,198930.0,239447,1.24,-0.75,9.91,-0.03,-0.01,-0.0,31.83,21.902726,25.825256688779213,273.1731964234603,10.015398144856748,0.03162277660168379,0.828154115411316,0.6670134677180397
23861196,1931.0,1,199017.0,239724,1.26,-0.77,9.88,-0.03,-0.01,-0.0,31.83,21.942704,17.329212326856744,379.9351033405115,9.989739736349492,0.03162277660168379,0.5580729519810105,0.9245418304472395
23901196,1899.0,1,199114.0,240033,1.22,-0.76,9.85,-0.03,-0.01,-0.0,31.83,21.982704,1.5384441230141586,511.01420706916014,9.954320669940264,0.03162277660168379,0.05609946099195761,1.2407275182644968
23941196,1929.0,1,199183.0,240324,1.27,-0.77,9.92,-0.03,-0.01,-0.0,31.83,22.022704,10.995854645860401,643.4636883118723,10.030563294252223,0.03162277660168379,0.3567415396157505,1.5602187959471718
23981196,1906.0,1,199275.0,240527,1.25,-0.76,9.9,-0.03,-0.01,-0.0,31.83,22.062704,8.91702798977477,735.8750238777292,10.007502185860366,0.03162277660168379,0.2906576189194496,1.7831310746158557
24021225,1929.0,1,199303.0,240884,1.24,-0.77,9.93,-0.03,-0.01,-0.0,31.83,22.102733,9.359931947593834,733.7338794910066,10.036702645789601,0.03162277660168379,0.3047371141668817,1.7779662604587998
24061197,1889.0,1,199395.0,240663,1.25,-0.78,9.9,-0.03,-0.01,-0.0,31.83,22.142705,-10.823594512493656,598.9863743990419,10.009040913094521,0.03162277660168379,-0.33687798060568147,1.4529317479604476
24101197,1898.0,1,198938.0,238825,1.26,-0.77,9.89,-0.03,-0.01,-0.0,31.83,22.182705,-21.85823550473743,343.20257820105144,9.999629993154747,0.03162277660168379,-0.6876587145879337,0.8359365654117992
24141197,1898.0,1,198454.0,237920,1.23,-0.78,9.9,-0.03,-0.01,-0.0,31.83,22.222705,-4.779815860929629,29.21986642856665,10.006562846452322,0.03162277660168379,-0.1447520099545231,0.0785554355405793
24181196,1897.0,1,198211.0,237720,1.24,-0.76,9.92,-0.03,-0.01,-0.0,31.83,22.262704,-24.532687000267874,-267.29101443643117,10.026046080085608,0.03162277660168379,-0.7726769819934182,-0.6366805871719382
24221196,1869.0,1,198114.0,237554,1.25,-0.75,9.9,-0.03,-0.01,-0.0,31.83,22.302704,-35.52592049858761,-502.9008075186248,10.006747723411438,0.03162277660168379,-1.122141411156941,-1.205012551329953
24261194,1910.0,1,197902.0,237134,1.26,-0.78,9.91,-0.03,-0.01,-0.0,31.83,22.342702,-13.607178860114708,-677.2088432665353,10.02018462903753,0.03162277660168379,-0.42536547750262177,-1.6254739720085756
24301177,1908.0,1,197699.0,236865,1.25,-0.75,9.92,-0.03,-0.01,-0.0,31.83,22.382685,0.0683165898298356,-805.4298464801923,10.0265347952321,0.03162277660168379,0.00936550603135727,-1.934765422289282
24341176,1926.0,1,197558.0,236618,1.23,-0.76,9.92,-0.03,-0.01,-0.0,31.83,22.422684,3.3725108474354064,-886.8835284867583,10.0248142127423,0.03162277660168379,0.1144026964317987,-2.131245927098115
24381177,1905.0,1,197539.0,236673,1.23,-0.75,9.92,-0.03,-0.01,-0.0,31.83,22.462685,-9.931223650856992,-901.9395085535986,10.02406105328574,0.03162277660168379,-0.3085103603043677,-2.1675635801624176
24421196,1904.0,1,197548.0,236903,1.25,-0.77,9.91,-0.03,-0.01,-0.0,31.83,22.502704,-15.182040055790043,-836.5282768703138,10.01815851341952,0.03162277660168379,-0.47542881590461095,-2.0097802669383045
24461197,1898.0,1,197681.0,237242,1.23,-0.77,9.91,-0.03,-0.01,-0.0,31.83,22.542705,-23.92246362568433,-705.603750639432,10.015682702641893,0.03162277660168379,-0.7532785617475759,-1.6939674470386799
24501883,1898.0,1,197846.0,237607,1.25,-0.78,9.9,-0.03,-0.01,-0.0,31.75,22.583391,-20.496170416449207,-549.4299858283256,10.009040913094521,0.03162277660168379,-0.6443599618929272,-1.3172490545477358
24540196,1951.0,1,197955.0,238005,1.23,-0.77,9.93,-0.03,-0.01,-0.0,31.75,22.621704,27.330127260949876,-403.3919198632315,10.035472086553776,0.03162277660168379,0.8759925185116401,-0.964979737614779
24580196,1955.0,1,198067.0,238189,1.23,-0.77,9.9,-0.03,-0.01,-0.0,31.75,22.661704,31.547030410893722,-268.3011311409196,10.005788324764822,0.03162277660168379,1.0100438558509433,-0.639117165054295
24620196,1936.0,1,198168.0,238539,1.26,-0.77,9.92,-0.03,-0.01,-0.0,31.75,22.701704,15.434518073701875,-110.93216480273949,10.029302069436337,0.03162277660168379,0.49784242511015153,-0.2595157377685725
24660196,1967.0,1,198309.0,238950,1.24,-0.77,9.9,-0.03,-0.01,-0.0,31.75,22.741704,36.81101709418795,100.00681224427156,10.00702253420067,0.03162277660168379,1.1773809820643522,0.24930590998351532
24700196,1933.0,1,198505.0,239391,1.26,-0.76,9.92,-0.03,-0.01,-0.0,31.75,22.781704,14.733221211778558,350.06095583978305,10.028539275487732,0.03162277660168379,0.47554886538874097,0.8524801699172281
24740196,1913.0,1,198754.0,239832,1.24,-0.76,9.9,-0.03,-0.01,-0.0,31.75,22.821704,-19.88356169329181,567.6552605515819,10.006258041845614,0.03162277660168379,-0.6248857136863812,1.377355630180091
24780196,1926.0,1,198882.0,240033,1.24,-0.76,9.91,-0.03,-0.01,-0.0,31.75,22.861704,5.066910191601099,662.7856166633455,10.016151955716326,0.03162277660168379,0.168266038793663,1.606826661213122
24820196,1937.0,1,198903.0,239079,1.25,-0.76,9.9,-0.03,-0.01,-0.0,31.75,22.901704,7.405952509322406,589.6765124973304,10.007502185860366,0.03162277660168379,0.24262196769090125,1.4304747353234823
24860196,1904.0,1,198375.0,237684,1.24,-0.77,9.91,-0.03,-0.01,-0.0,31.75,22.941704,-23.959205676667832,381.08731145214097,10.016915692966572,0.03162277660168379,-0.754446556575959,0.9273211576162622
24900196,1929.0,1,198073.0,237329,1.23,-0.77,9.91,-0.03,-0.01,-0.0,31.75,22.981704,5.861616017842835,123.53182001894146,10.015682702641893,0.03162277660168379,0.1935289805808035,0.3060523367788842
24940196,1968.0,1,197948.0,237104,1.24,-0.77,9.92,-0.03,-0.01,-0.0,31.75,23.021704,33.4044635152588,-102.85009252389176,10.026809063705162,0.03162277660168379,1.0690898862682527,-0.2400203681041113
24980196,1923.0,1,197862.0,236979,1.23,-0.76,9.91,-0.03,-0.01,-0.0,31.75,23.061704,3.7491001026639754,-263.5256216547314,10.014918871363863,0.03162277660168379,0.12637411040455596,-0.6275978022526234
25020196,1929.0,1,197733.0,236726,1.25,-0.76,9.9,-0.03,-0.01,-0.0,31.75,23.101704,-6.514471991429146,-357.3612485127673,10.007502185860366,0.03162277660168379,-0.19989507723610808,-0.8539457202342065
25060196,1922.0,1,197622.0,236720,1.24,-0.77,9.89,-0.03,-0.01,-0.0,31.75,23.141704,0.8067331559585519,-378.0991588557028,9.997129588036758,0.03162277660168379,0.03283906581761145,-0.9039691813287193
25100196,1935.0,1,197633.0,236812,1.24,-0.75,9.92,-0.03,-0.01,-0.0,31.75,23.181704,4.272737246113736,-299.12967215577123,10.02529301317423,0.03162277660168379,0.14302003677848932,-0.7134809894008675
25140196,1931.0,1,197823.0,237211,1.25,-0.75,9.89,-0.03,-0.01,-0.0,31.75,23.221704,5.3345276995642985,-101.07938877469013,9.996854505293154,0.03162277660168379,0.17677334464401348,-0.2357491214527692
25180196,1935.0,1,198122.0,237830,1.24,-0.76,9.92,-0.03,-0.01,-0.0,31.75,23.261704,9.119670962998708,187.32090214949747,10.026046080085608,0.03162277660168379,0.29709944615549677,0.4599227420147509
25220196,1949.0,1,198417.0,238599,1.24,-0.77,9.93,-0.03,-0.01,-0.0,31.75,23.301704,22.385930188488167,482.12558420882726,10.036702645789601,0.03162277660168379,0.7188211996395465,1.1710431152638732
25260196,1938.0,1,198664.0,238940,1.22,-0.78,9.93,-0.03,-0.01,-0.0,31.75,23.341704,12.21868744780843,688.3020189768231,10.035023667137015,0.03162277660168379,0.39561423045421173,1.6683766793823829
25300196,1920.0,1,198790.0,239046,1.24,-0.79,9.91,-0.03,-0.01,-0.0,31.75,23.381704,-1.9754743320412809,763.8769626371204,10.018472937528953,0.03162277660168379,-0.05560466202251394,1.850676640728235
25340196,1931.0,1,198652.0,238978,1.24,-0.78,9.92,-0.03,-0.01,-0.0,31.75,23.421704,1.3626598695977028,748.5479895385872,10.027581961769249,0.03162277660168379,0.05051144689351177,1.8137004808002155
25380197,1917.0,1,198591.0,239108,1.24,-0.76,9.9,-0.03,-0.01,-0.0,31.75,23.461705,1.9123101789193129,725.3647621952437,10.006258041845614,0.03162277660168379,0.06798430705026084,1.7577784880884448
25420196,1936.0,1,198596.0,239251,1.27,-0.77,9.9,-0.03,-0.01,-0.0,31.75,23.501704,2.95965587269827,740.9987145089016,10.010784185067621,0.03162277660168379,0.10127842975485726,1.7954903111401899
25460237,1908.0,1,198604.0,239500,1.25,-0.76,9.92,-0.03,-0.01,-0.0,31.75,23.541745,-2.4113032975200364,752.1279226674451,10.027287768883468,0.03162277660168379,-0.06945924999767533,1.8223359046510754
25500197,1915.0,1,198653.0,239762,1.25,-0.78,9.9,-0.03,-0.01,-0.0,31.75,23.581705,-17.778063514041722,650.8834946448791,10.009040913094521,0.03162277660168379,-0.5579539306555803,1.5781166645024012
25540882,1886.0,1,198520.0,239127,1.24,-0.77,9.9,-0.03,-0.01,-0.0,31.67,23.62239,-23.745057764956442,355.98449528917786,10.00702253420067,0.03162277660168379,-0.7476389982962027,0.8667687814643195
25581197,1923.0,1,197834.0,237001,1.26,-0.77,9.95,-0.03,-0.01,-0.0,31.67,23.662705,-5.720574998579675,-106.39381787080647,10.058976091034314,0.03162277660168379,-0.1746578474926315,-0.24856845246215825
25621197,1917.0,1,197141.0,235991,1.27,-0.77,9.9,-0.03,-0.01,-0.0,31.67,23.702705,4.755691453339468,-605.1008037414043,10.010784185067621,0.03162277660168379,0.15837269133331697,-1.4515367888431674
25661209,1903.0,1,196905.0,235824,1.26,-0.76,9.92,-0.03,-0.01,-0.0,31.67,23.742717,-19.416535787722236,-989.3109357675199,10.028539275487732,0.03162277660168379,-0.6100394046800826,-2.3783187197947258
25701197,1897.0,1,196899.0,236052,1.24,-0.74,9.91,-0.03,-0.01,-0.0,31.67,23.782705,-19.371600127664752,-1180.7076595826925,10.014654262629339,0.03162277660168379,-0.608610942818204,-2.8400010401952995
25741197,1916.0,1,196944.0,236205,1.23,-0.76,9.94,-0.03,-0.01,-0.0,31.67,23.822705,0.5201650293764661,-1196.3226011051133,10.044605517390915,0.03162277660168379,0.023729337839234983,-2.8776670058988305
25781193,1901.0,1,196968.0,236471,1.24,-0.77,9.88,-0.03,-0.01,-0.0,31.67,23.862701,-19.44745664492288,-1098.0938672113625,9.987236855106623,0.03162277660168379,-0.6110223492989266,-2.6407221466029567
25821197,1893.0,1,197079.0,236763,1.24,-0.77,9.9,-0.03,-0.01,-0.0,31.67,23.902705,-17.15904628868943,-930.7979324761635,10.00702253420067,0.03162277660168379,-0.5382759622640975,-2.2371751380516702
25861193,1941.0,1,197286.0,237505,1.23,-0.76,9.9,-0.03,-0.01,-0.0,31.67,23.942701,19.200535350019983,-705.5183333121646,10.005023738102775,0.03162277660168379,0.617560529695998,-1.6937614055293524
25901194,1930.0,1,197682.0,238358,1.25,-0.77,9.89,-0.03,-0.01,-0.0,31.67,23.982702,20.90881315330224,-428.5515936323252,9.998374867947291,0.03162277660168379,0.6718650550631702,-1.02566926424144
25941193,1921.0,1,198001.0,239114,1.26,-0.76,9.89,-0.03,-0.01,-0.0,31.67,24.022701,2.0691718292104446,-131.33380221534992,9.99886493558144,0.03162277660168379,0.07297078960655487,-0.3087280498336469
25981197,1887.0,1,198356.0,239800,1.26,-0.79,9.9,-0.03,-0.01,-0.0,31.67,24.062705,-24.81599181394914,134.70036737643727,10.011078862939797,0.03162277660168379,-0.7816829723608141,0.332992823307231
26021207,1882.0,1,198550.0,240182,1.27,-0.78,9.9,-0.03,-0.01,-0.0,31.67,24.102715,-32.424174534544065,331.45949311397675,10.011558320261637,0.03162277660168379,-1.0235398593113976,0.8076101935513409
26061194,1905.0,1,198703.0,240381,1.27,-0.79,9.92,-0.03,-0.01,-0.0,31.67,24.142702,-9.44858217726571,458.04662843824724,10.032118420353699,0.03162277660168379,-0.29316764725410827,1.1129604691694739
26101193,1915.0,1,198724.0,240536,1.28,-0.77,9.93,-0.03,-0.01,-0.0,31.67,24.182701,3.0366657567481283,537.4305777185417,10.041722959731562,0.03162277660168379,0.10372650066807368,1.3044484172164845
26141197,1936.0,1,198742.0,240590,1.25,-0.79,9.92,-0.03,-0.01,-0.0,31.67,24.222705,21.101434762185935,577.8570237776854,10.029606173723872,0.03162277660168379,0.6779883126655297,1.401964064559318
