timestamp_us,ecg,leads,ir,red,accX,accY,accZ,gyroX,gyroY,gyroZ,temp,time_sec,ecg_filtered,ppg_filtered,accel_magnitude,gyro_magnitude,ecg_norm,ppg_norm
1948957,1809,1,201210,233092,0.575,-0.82,9.909999999999997,-0.03,-0.01,-0.0,34.43,0.03047,24.542087624551844,74.83374141643809,9.960478151173263,0.03162277660168379,0.43482705985031744,0.18889414816493802
1989199,1809,1,201198,233100,0.575,-0.84,9.95,-0.03,-0.01,-0.0,34.43,0.070712,10.408711395820362,109.49493986376281,10.001936062583082,0.03162277660168379,0.18429935050530094,0.27566158521475953
2029187,1809,1,201189,232531,0.575,-0.82,9.96,-0.03,-0.01,-0.0,34.43,0.1107,-5.393146013544372,88.64485674615644,10.010226021424291,0.03162277660168379,-0.09580379513352699,0.22346753666967553
2069188,1809,1,200902,231609,0.575,-0.84,9.96,-0.03,-0.01,-0.0,34.43,0.150701,-17.416271393495563,4.5588193878182235,10.01188418830342,0.03162277660168379,-0.3089252752285525,0.01297481627668874
2109206,1809,1,200708,230948,0.575,-0.84,9.97,-0.03,-0.01,-0.0,34.43,0.190719,-36.39945271523652,-95.35865590814271,10.02183241727779,0.03162277660168379,-0.6454204520107893,-0.23714876964301668
2149187,1809,1,200667,230774,0.575,-0.82,9.95,-0.03,-0.01,-0.0,34.43,0.2307,-45.60630392719961,-144.40081384966527,10.0002762461844,0.03162277660168379,-0.8086207593601766,-0.359916087064117
2189187,1809,1,200686,230804,0.575,-0.82,9.95,-0.03,-0.01,-0.0,34.43,0.2707,-64.56561647349703,-105.81516039887447,10.0002762461844,0.03162277660168379,-1.1446928391031805,-0.2633245551265902
2229187,1809,1,200715,231169,0.575,-0.82,9.96,-0.03,-0.01,-0.0,34.43,0.3107,-78.77202662489262,1.3147967989647291,10.010226021424291,0.03162277660168379,-1.3965151450862123,0.004854049010250789
2269187,1809,1,200777,231515,0.575,-0.82,9.96,-0.03,-0.01,-0.0,34.43,0.3507,-84.69901555598034,113.97638996488183,10.010226021424291,0.03162277660168379,-1.5015767337814951,0.2868800068781563
2309211,1809,1,200700,231688,0.575,-0.82,9.91,-0.03,-0.01,-0.0,34.43,0.390724,-118.82119726569704,163.44023496038187,9.960478151173266,0.03162277660168379,-2.106425276920929,0.41070293421898624
2349187,1809,1,200658,231788,0.575,-0.82,9.990000000000002,-0.03,-0.01,-0.0,34.43,0.4307,-98.7129822081409,117.20821662619606,10.040075945927901,0.03162277660168379,-1.7499877933460184,0.2949702440584336
2389188,1950,1,200590,232106,0.575,-0.84,9.94,-0.03,-0.01,-0.0,34.43,0.470701,-17.011883783283007,3.5159911034919755,9.991988040425188,0.03162277660168379,-0.30175711526206794,0.010364302458144334
2429187,1972,1,200478,232217,0.575,-0.83,9.95,-0.03,-0.01,-0.0,34.43,0.5107,44.995419915534924,-97.14861755762023,10.001101189369098,0.03162277660168379,0.7973820788638004,-0.24162958368580473
2469193,2079,1,200243,232106,0.575,-0.84,9.97,-0.03,-0.01,-0.0,34.43,0.550706,87.15272695981372,-96.75313058417345,10.02183241727779,0.03162277660168379,1.5446609593684646,-0.2406395604722474
2509189,2085,1,200325,232316,0.575,-0.86,9.990000000000002,-0.03,-0.01,-0.0,34.43,0.590702,122.1880560600123,40.128342233742565,10.04342197659742,0.03162277660168379,2.1656959197042895,0.10201606333905448
2549193,2112,1,200761,232300,0.6,-0.83,9.96,-0.03,-0.01,-0.0,34.43,0.630706,115.99322469046325,262.82533102830917,10.012517166027733,0.03162277660168379,2.0558865657555287,0.6594938143113026
2589189,2121,1,200877,232218,0.575,-0.83,9.96,-0.03,-0.01,-0.0,34.43,0.670702,107.88999948404994,459.5147179826039,10.011050144715089,0.03162277660168379,1.9122490925562654,1.15186669134441
2629193,2129,1,200917,232127,0.58,-0.84,9.97,-0.03,-0.01,-0.0,34.43,0.710706,138.24807450133017,527.1061018340006,10.02212053409856,0.03162277660168379,2.450375218339447,1.3210683175475295
2669190,2177,1,200831,231734,0.575,-0.82,9.98,-0.03,-0.01,-0.0,34.43,0.750703,119.68976288940651,432.4088007867148,10.030125871593038,0.03162277660168379,2.1214112664710583,1.0840124027067501
2709193,2156,1,200528,230637,0.575,-0.82,9.96,-0.03,-0.01,-0.0,34.43,0.790706,153.48792998787414,217.48910853861304,10.010226021424291,0.03162277660168379,2.7205163384796855,0.5460035714124731
2749190,2197,1,200206,229781,0.575,-0.84,9.96,-0.03,-0.01,-0.0,34.43,0.830703,128.17868952939784,-49.04430181987684,10.01188418830342,0.03162277660168379,2.2718856691542304,-0.1212099682491797
2789193,2005,1,200061,229563,0.575,-0.84,9.95,-0.03,-0.01,-0.0,34.43,0.870706,-44.39096989097495,-326.76958467641646,10.001936062583082,0.03162277660168379,-0.7870777927500161,-0.8164401413783666
2829190,2059,1,199789,229502,0.575,-0.82,9.92,-0.03,-0.01,-0.0,34.43,0.910703,13.29427486451151,-613.7415981407049,9.97042752343148,0.03162277660168379,0.2354487428572328,-1.5348176709714048
2869193,2183,1,199554,229374,0.59,-0.86,9.97,-0.03,-0.01,-0.0,34.43,0.950706,70.23834234755927,-905.7981972903638,10.024400231435296,0.03162277660168379,1.244837197281503,-2.2659234525621414
2909190,2030,1,199424,229371,0.575,-0.84,9.98,-0.03,-0.01,-0.0,34.43,0.990703,6.218386844639011,-1149.101788655247,10.031780749199019,0.03162277660168379,0.11002181099669123,-2.874985746811157
2949193,2186,1,198908,229124,0.59,-0.88,9.96,-0.03,-0.01,-0.0,34.43,1.030706,36.51412116964422,-1239.7909123819054,10.016191891133078,0.03162277660168379,0.6470428879520569,-3.102007984545226
2989876,1902,1,199492,229077,0.61,-0.86,9.96,-0.03,-0.01,-0.0,34.07,1.071389,-136.96258598464607,-1082.056034447598,10.015652749571544,0.03162277660168379,-2.4279988688597425,-2.7071499962236296
3028195,1837,1,199906,229525,0.61,-0.87,9.94,-0.03,-0.01,-0.0,34.07,1.109708,-305.2115110839397,-660.9040965038837,9.996629431963555,0.03162277660168379,-5.410373152450895,-1.6528796333717635
3068188,1809,1,200252,230139,0.64,-0.86,9.94,-0.03,-0.01,-0.0,34.07,1.149701,-275.794126746611,-70.50043341188739,9.997639721454258,0.03162277660168379,-4.888921675204372,-0.1749211389714417
3108193,1809,1,201424,230655,0.65,-0.85,9.95,-0.03,-0.01,-0.0,34.07,1.189706,-307.16544951953006,525.1234549474598,10.007372282472556,0.03162277660168379,-5.445008593590183,1.3161051542229438
3148189,1809,1,201521,231424,0.61,-0.85,9.95,-0.03,-0.01,-0.0,34.07,1.229702,-317.8672127510578,970.1273036646376,10.00485382202059,0.03162277660168379,-5.634707656641872,2.4300840458984627
3188192,1809,1,201800,231820,0.6,-0.87,9.99,-0.03,-0.01,-0.0,34.07,1.269705,-293.44055112116354,1179.6020993583356,10.04574536806503,0.03162277660168379,-5.2017215473042535,2.9544626583835143
3228189,1919,1,201855,232153,0.65,-0.85,9.92,-0.03,-0.01,-0.0,34.07,1.309702,-225.45843284621805,1151.7161806137942,9.977544788173091,0.03162277660168379,-3.996673008850912,2.884655790541927
3268193,2053,1,201723,232368,0.6,-0.86,9.98,-0.03,-0.01,-0.0,34.07,1.349706,-54.621375785659374,937.2762410553646,10.03493896344168,0.03162277660168379,-0.9684215929139689,2.347847924972014
3308188,2217,1,201434,232300,0.62,-0.87,9.94,-0.03,-0.01,-0.0,34.07,1.389701,75.10910449869642,602.4284600188641,9.997244620394161,0.03162277660168379,1.3311761487634677,1.5096229049540044
3348193,2217,1,201119,231938,0.62,-0.89,9.94,-0.03,-0.01,-0.0,34.07,1.429706,97.15645653029777,211.6069563367709,9.999004950493823,0.03162277660168379,1.7219867033124732,0.5312787697970172
3388189,2217,1,200772,230917,0.6,-0.87,9.95,-0.03,-0.01,-0.0,34.07,1.469702,84.42601129153691,-170.10279563121208,10.005968219018087,0.03162277660168379,1.4963272973083082,-0.42425590179023326
3428193,2217,1,200507,229864,0.59,-0.87,9.96,-0.03,-0.01,-0.0,34.07,1.509706,90.25803601292253,-474.0150221167783,10.015318267533988,0.03162277660168379,1.5997055539008156,-1.1850398954635037
3468189,2217,1,200360,229392,0.64,-0.86,9.95,-0.03,-0.01,-0.0,34.07,1.549702,92.40410916540236,-639.1564281222292,10.007582125568591,0.03162277660168379,1.6377467679940645,-1.5984386581079306
3508192,2217,1,200493,229450,0.64,-0.87,9.94,-0.03,-0.01,-0.0,34.07,1.589705,92.66232978792067,-635.4513076477535,9.99850488823204,0.03162277660168379,1.6423239772905698,-1.5891636237198488
3548189,2217,1,200641,229839,0.62,-0.87,9.92,-0.03,-0.01,-0.0,34.07,1.629702,99.43141586226079,-482.58120313001115,9.977359370093874,0.03162277660168379,1.7623125491023235,-1.2064836309694358
3588192,2217,1,200896,230535,0.64,-0.86,9.95,-0.03,-0.01,-0.0,34.07,1.669705,101.50238107727124,-248.2978744196294,10.007582125568591,0.03162277660168379,1.7990224026470871,-0.6200017755715684
3628189,2217,1,201263,231134,0.64,-0.88,9.98,-0.03,-0.01,-0.0,34.07,1.709702,109.27750335371906,-22.125921815855044,10.039143389751937,0.03162277660168379,1.936843935327726,-0.05382514178301899
3668193,2217,1,201436,231420,0.62,-0.87,9.93,-0.03,-0.01,-0.0,34.07,1.749706,113.75575389797066,123.78550477721761,9.987301937961023,0.03162277660168379,2.0162252404431795,0.3114351806782563
3708189,2217,1,201447,231529,0.63,-0.87,9.95,-0.03,-0.01,-0.0,34.07,1.789702,122.78114954863335,165.20853892175822,10.007811948672895,0.03162277660168379,2.176209073159415,0.4151295325342997
3748228,2217,1,201478,231535,0.65,-0.89,9.96,-0.03,-0.01,-0.0,34.07,1.829741,130.11904228288438,130.5727850852332,10.020788392137618,0.03162277660168379,2.3062802909901703,0.3284257910219875
3788189,2217,1,201461,231557,0.63,-0.9,9.95,-0.03,-0.01,-0.0,34.07,1.869702,137.43149949842035,79.3626205202465,10.010464524686155,0.03162277660168379,2.435900639747849,0.20023129893146838
3828193,2217,1,201519,231519,0.62,-0.89,9.98,-0.03,-0.01,-0.0,34.07,1.909706,151.93400641104424,69.24148223845975,10.038769844956105,0.03162277660168379,2.6929715460748103,0.17489503624937836
3868189,2217,1,201600,231672,0.66,-0.86,9.91,-0.03,-0.01,-0.0,34.07,1.949702,152.66870128725856,129.24249053955097,9.969117312982128,0.03162277660168379,2.7059947205397563,0.3250956624222618
3908193,2217,1,201719,231874,0.62,-0.87,9.97,-0.03,-0.01,-0.0,34.07,1.989706,175.76414007924262,247.80257303269232,10.027073351681437,0.03162277660168379,3.115383622613378,0.6218873186593902
3948222,2217,1,201868,232166,0.63,-0.86,9.97,-0.03,-0.01,-0.0,34.07,2.029735,173.03150480909272,376.4771302101478,10.026833996830705,0.03162277660168379,3.0669450299072456,0.9439985565837172
3988193,2118,1,201905,232357,0.64,-0.89,9.92,-0.03,-0.01,-0.0,34.07,2.069706,95.46316356665812,448.0682084974517,9.98038576408748,0.03162277660168379,1.6919714542619104,1.123212624673793
4028876,2047,1,201959,232381,0.64,-0.86,9.94,-0.03,-0.01,-0.0,33.87,2.110389,32.58400141695393,406.3454636066518,9.997639721454258,0.03162277660168379,0.577377729170568,1.0187680063966758
4067192,2021,1,201835,231654,0.63,-0.89,9.96,-0.03,-0.01,-0.0,33.87,2.148705,9.780382346566986,237.49472683502722,10.019510966110072,0.03162277660168379,0.17316161279303538,0.5960836697337951
4107189,1973,1,201499,230666,0.62,-0.88,9.96,-0.03,-0.01,-0.0,33.87,2.188702,-7.350876465819168,-14.773416823627453,10.018003793171573,0.03162277660168379,-0.13050645342166686,-0.03541960352556022
4147192,1939,1,201238,230023,0.64,-0.87,9.94,-0.03,-0.01,-0.0,33.87,2.228705,-60.99009209056631,-265.1162090012303,9.99850488823204,0.03162277660168379,-1.0813132248577255,-0.6621031411463794
4187189,1850,1,201076,229868,0.63,-0.88,9.95,-0.03,-0.01,-0.0,33.87,2.268702,-103.75487831051254,-428.539582062405,10.008686227472614,0.03162277660168379,-1.839360258979172,-1.0712011489981368
4227192,1891,1,201043,230101,0.62,-0.88,9.97,-0.03,-0.01,-0.0,33.87,2.308705,-88.3959922247273,-462.6619019130872,10.027945951190603,0.03162277660168379,-1.5671092067967043,-1.1566196103400719
4267189,1842,1,201160,230593,0.65,-0.88,9.95,-0.03,-0.01,-0.0,33.87,2.348702,-100.34599991317795,-382.9617719800682,10.009965034903967,0.03162277660168379,-1.7789346053703883,-0.9571061394675845
4307192,1825,1,201260,231016,0.62,-0.87,9.94,-0.03,-0.01,-0.0,33.87,2.388705,-124.75224752048273,-244.34963577748388,9.997244620394161,0.03162277660168379,-2.2115588564913216,-0.6101181430606886
4347189,1809,1,201359,231116,0.59,-0.87,9.96,-0.03,-0.01,-0.0,33.87,2.428702,-132.07680265270685,-106.35007023265122,10.015318267533988,0.03162277660168379,-2.341393652477085,-0.26466359582364196
4387193,1809,1,201388,231062,0.65,-0.87,9.96,-0.03,-0.01,-0.0,33.87,2.468706,-113.74156318493573,-6.010587070482265,10.019031889359372,0.03162277660168379,-2.0163838692651286,-0.013483596894404254
4427189,1863,1,201438,231112,0.63,-0.86,9.94,-0.03,-0.01,-0.0,33.87,2.508702,-75.17512465677315,49.939347561444585,9.997004551364373,0.03162277660168379,-1.332756592548732,0.1265759696694876
4467192,1809,1,201470,231288,0.6,-0.89,9.95,-0.03,-0.01,-0.0,33.87,2.548705,-100.35702086875091,78.37328919485616,10.007727014662219,0.03162277660168379,-1.7791299624251926,0.19775470414125423
4507189,1809,1,201509,231397,0.64,-0.87,9.95,-0.03,-0.01,-0.0,33.87,2.588702,-119.78155386083348,107.31644476701497,10.008446432888572,0.03162277660168379,-2.123448522749821,0.2702081547323233
4547192,1809,1,201534,231387,0.63,-0.87,9.93,-0.03,-0.01,-0.0,33.87,2.628705,-100.41912558608354,159.97644465068814,9.987927712994322,0.03162277660168379,-1.7802308283698234,0.4020320220430303
4587189,1809,1,201380,231466,0.6,-0.85,9.94,-0.03,-0.01,-0.0,33.87,2.668702,-109.48501093829104,235.47169464447595,9.994303377424561,0.03162277660168379,-1.9409323800525622,0.5910194098089635
4627192,1809,1,201451,231527,0.61,-0.85,9.97,-0.03,-0.01,-0.0,33.87,2.708705,-106.59229633650631,296.7614713980998,10.024744385768647,0.03162277660168379,-1.8896562269773491,0.744446212241934
4667190,1809,1,201568,231332,0.62,-0.87,9.99,-0.03,-0.01,-0.0,33.87,2.748703,-105.11807766643177,284.0114339751025,10.046959739144972,0.03162277660168379,-1.863524280830142,0.7125290218665339
4707193,1809,1,201398,230368,0.61,-0.87,9.92,-0.03,-0.01,-0.0,33.87,2.788706,-114.3216384678575,156.113426244854,9.976742955494043,0.03162277660168379,-2.026666262482867,0.3923617214947125
4747189,1809,1,201032,228829,0.61,-0.86,9.94,-0.03,-0.01,-0.0,33.87,2.828702,-108.14305829997267,-68.03612810444443,9.99576410285877,0.03162277660168379,-1.9171449767395479,-0.16875223930226133
4787193,1809,1,200667,227754,0.62,-0.85,9.95,-0.03,-0.01,-0.0,33.87,2.868706,-123.35564354039143,-307.1122374723769,10.005468504772777,0.03162277660168379,-2.1868027054958414,-0.7672318706751753
4827189,1809,1,200538,227576,0.64,-0.87,9.93,-0.03,-0.01,-0.0,33.87,2.908702,-117.28374484769391,-462.3928620699848,9.988563460277959,0.03162277660168379,-2.079172451674102,-1.1559461224430576
4867192,1893,1,200527,227514,0.65,-0.85,9.92,-0.03,-0.01,-0.0,33.87,2.948705,-49.75885485069483,-476.7470878995714,9.977544788173091,0.03162277660168379,-0.8822287249280162,-1.1918790803862271
4907189,1949,1,200590,227830,0.62,-0.86,9.95,-0.03,-0.01,-0.0,33.87,2.988702,8.546704365061034,-363.1637548501456,10.006323000982928,0.03162277660168379,0.15129348208073143,-0.9075457294995779
4947192,2002,1,200757,228031,0.63,-0.89,9.94,-0.03,-0.01,-0.0,33.87,3.028705,47.775076524233484,-186.54118807580906,9.999629993154747,0.03162277660168379,0.8466541700947213,-0.4654061575670043
4987189,2058,1,200815,228262,0.6,-0.87,9.96,-0.03,-0.01,-0.0,33.87,3.068702,99.93055692594129,-18.84403085540641,10.01591233987199,0.03162277660168379,1.7711603053142964,-0.04560957855753323
5027193,2085,1,200903,228428,0.64,-0.86,9.97,-0.03,-0.01,-0.0,33.87,3.108706,118.00423834447741,99.03499269349422,10.02746727743352,0.03162277660168379,2.0915337201260127,0.24947718166564367
5067876,2077,1,200927,228679,0.64,-0.85,9.96,-0.03,-0.01,-0.0,33.79,3.149389,100.03115972161196,169.01302527502017,10.016671103715046,0.03162277660168379,1.7729435867854173,0.42465330969582016
5108193,2096,1,200986,228902,0.61,-0.88,9.94,-0.03,-0.01,-0.0,33.79,3.189706,114.5189836868173,223.04863054839987,9.997504688671068,0.03162277660168379,2.0297542237242525,0.5599207323191961
5148189,2131,1,201069,229066,0.62,-0.87,9.94,-0.03,-0.01,-0.0,33.79,3.229702,135.97578157961203,298.5515359177087,9.997244620394161,0.03162277660168379,2.410096637239931,0.748927283799697
5188241,2122,1,201133,229199,0.65,-0.88,9.95,-0.03,-0.01,-0.0,33.79,3.269754,124.23589601625041,412.52523614022493,10.009965034903967,0.03162277660168379,2.2019958557591,1.0342378414949602
5228190,2128,1,201170,229180,0.62,-0.86,9.96,-0.03,-0.01,-0.0,33.79,3.309703,116.8894776027312,541.5867660024484,10.016266769610322,0.03162277660168379,2.0717735120499206,1.3573177887995076
5268193,2130,1,201199,229204,0.62,-0.86,9.95,-0.03,-0.01,-0.0,33.79,3.349706,115.71423231812493,618.3597958865065,10.006323000982928,0.03162277660168379,2.0509411571825535,1.5495038451389191
5308190,2145,1,201153,229145,0.64,-0.89,9.96,-0.03,-0.01,-0.0,33.79,3.389703,118.62032732516482,556.7822722915993,10.020144709533891,0.03162277660168379,2.1024544908312146,1.395356725548558
5348193,2155,1,201065,228128,0.63,-0.86,9.96,-0.03,-0.01,-0.0,33.79,3.429706,127.10499787983062,304.7086107755917,10.0168907351533,0.03162277660168379,2.2528534503018007,0.7643402997678057
5387230,2157,1,200548,225922,0.62,-0.87,9.93,-0.03,-0.01,-0.0,33.79,3.468743,114.57613883130222,-105.54690468395297,9.987301937961023,0.03162277660168379,2.0307673537218807,-0.26265303013898544
5427193,2130,1,199950,224459,0.62,-0.86,9.95,-0.03,-0.01,-0.0,33.79,3.508706,92.81160602741835,-551.2141604892224,10.006323000982928,0.03162277660168379,1.6449700424441291,-1.3782926299069231
5467189,2117,1,199643,224112,0.62,-0.86,9.98,-0.03,-0.01,-0.0,33.79,3.548702,59.04064788229617,-874.1772741664497,10.036154642092757,0.03162277660168379,1.046347275345878,-2.1867667419024954
5507193,2066,1,199666,224280,0.63,-0.87,9.95,-0.03,-0.01,-0.0,33.79,3.588706,21.675553821428956,-964.8755419097137,10.007811948672895,0.03162277660168379,0.384014986653219,-2.413811869868892
5547189,2089,1,199809,224918,0.61,-0.86,9.96,-0.03,-0.01,-0.0,33.79,3.628702,19.543521338476822,-817.6412052550547,10.015652749571544,0.03162277660168379,0.34622265695372817,-2.0452399043994935
5587212,2065,1,200072,226158,0.62,-0.86,9.94,-0.03,-0.01,-0.0,33.79,3.668725,12.745983816452338,-523.2507076888254,9.996379344542703,0.03162277660168379,0.2257297558224575,-1.3082916709313868
5627189,2047,1,200436,226958,0.61,-0.85,9.97,-0.03,-0.01,-0.0,33.79,3.708702,-27.829455437169766,-211.1544295214717,10.024744385768647,0.03162277660168379,-0.4935089941665944,-0.5270205267577911
5667192,2022,1,200627,227266,0.61,-0.89,9.97,-0.03,-0.01,-0.0,33.79,3.748705,-39.515133877941366,17.090136402862278,10.028215195138166,0.03162277660168379,-0.700648902177924,0.04434448348270293
5707189,2055,1,200728,227457,0.65,-0.86,9.97,-0.03,-0.01,-0.0,33.79,3.788702,-20.24440850817527,126.42089987023165,10.028110490017548,0.03162277660168379,-0.3590567301327232,0.3180323696987691
5747193,2047,1,200819,227560,0.63,-0.86,9.96,-0.03,-0.01,-0.0,33.79,3.828706,-22.769402800404276,147.3859058467363,10.0168907351533,0.03162277660168379,-0.40381468646982344,0.37051410483207636
5787189,2057,1,200829,227825,0.61,-0.85,9.96,-0.03,-0.01,-0.0,33.79,3.868702,-17.4630367464583,147.3521854749655,10.014799049406834,0.03162277660168379,-0.3097542361622216,0.3704296925680467
5827192,2046,1,200959,228073,0.63,-0.87,9.97,-0.03,-0.01,-0.0,33.79,3.908705,-27.460823218865574,192.90331433690866,10.02769664479336,0.03162277660168379,-0.48697463296740834,0.48445791095418905
5867189,2006,1,201057,228563,0.61,-0.86,9.96,-0.03,-0.01,-0.0,33.79,3.948702,-69.64679519387175,317.2502460713069,10.015652749571544,0.03162277660168379,-1.2347616269841903,0.7957357967433807
5907192,2007,1,201238,229246,0.62,-0.85,9.95,-0.03,-0.01,-0.0,33.79,3.988705,-65.4158279874338,500.64598173497757,10.005468504772777,0.03162277660168379,-1.1597636572571848,1.2548306538812894
5947189,1998,1,201453,229717,0.62,-0.85,9.96,-0.03,-0.01,-0.0,33.79,4.028702,-78.51002432617717,671.5946524631076,10.015413121783844,0.03162277660168379,-1.391870901935954,1.6827667521871617
5987193,1970,1,201566,229966,0.63,-0.86,9.94,-0.03,-0.01,-0.0,33.79,4.068706,-102.19432155563783,735.059018910709,9.997004551364373,0.03162277660168379,-1.811697887103238,1.8416372087011683
6027189,1996,1,201580,229639,0.6,-0.87,9.96,-0.03,-0.01,-0.0,33.79,4.108702,-75.77448549204972,621.3826646067904,10.01591233987199,0.03162277660168379,-1.3433808407611092,1.5570709975498698
6067192,1975,1,201280,227968,0.61,-0.86,9.94,-0.03,-0.01,-0.0,33.79,4.148705,-101.35980497787668,330.8912312303968,9.99576410285877,0.03162277660168379,-1.7969052768129998,0.8298832981025045
6107875,1961,1,200847,226503,0.64,-0.86,9.96,-0.03,-0.01,-0.0,33.57,4.189388,-102.1636441485938,-56.632371720225066,10.017524644342034,0.03162277660168379,-1.8111541005096456,-0.14020519654195465
6146193,2039,1,200540,225813,0.62,-0.85,9.96,-0.03,-0.01,-0.0,33.57,4.227706,-40.16280201514001,-418.41174695419016,10.015413121783844,0.03162277660168379,-0.7121294438547441,-1.0458481221390545
6186190,2033,1,200430,225561,0.61,-0.86,9.96,-0.03,-0.01,-0.0,33.57,4.267703,-26.45600206658982,-649.155075204804,10.015652749571544,0.03162277660168379,-0.4691632100273386,-1.6234682883626126
6226193,2053,1,200375,225597,0.63,-0.87,9.96,-0.03,-0.01,-0.0,33.57,4.307706,-20.658439445512663,-707.0710576884223,10.017754239349257,0.03162277660168379,-0.36639582736260123,-1.7684494658589085
6266189,2043,1,200509,226156,0.64,-0.85,9.95,-0.03,-0.01,-0.0,33.57,4.347702,-20.52274048555509,-620.3695281407961,10.006727736877824,0.03162277660168379,-0.3639904325688533,-1.5514093794181714
6306193,2053,1,200734,226895,0.61,-0.88,9.95,-0.03,-0.01,-0.0,33.57,4.387706,-10.341582079140139,-458.0250816478224,10.007447226940544,0.03162277660168379,-0.1835195915780997,-1.1450122502804039
6346190,2081,1,200928,227577,0.63,-0.86,9.95,-0.03,-0.01,-0.0,33.57,4.427703,13.496625859620245,-288.82176504008805,10.006947586552053,0.03162277660168379,0.239035609184701,-0.721445299913869
6386192,2061,1,201076,227920,0.62,-0.85,9.93,-0.03,-0.01,-0.0,33.57,4.467705,3.0603325122392757,-153.16526179344646,9.98557960260695,0.03162277660168379,0.05404225557561391,-0.38185614451464545
6426189,2079,1,201214,228307,0.63,-0.89,9.96,-0.03,-0.01,-0.0,33.57,4.507702,14.945533345428865,-57.6369204960212,10.019510966110072,0.03162277660168379,0.2647188902067233,-0.14271988520166237
6466193,2074,1,201329,228731,0.62,-0.88,9.93,-0.03,-0.01,-0.0,33.57,4.547706,13.926324381637745,14.222745730716344,9.988178012030023,0.03162277660168379,0.2466524294467372,0.03716653953420478
6506189,2058,1,201484,229126,0.63,-0.87,9.94,-0.03,-0.01,-0.0,33.57,4.587702,1.8228565723585684,87.59257995643995,9.997869773106668,0.03162277660168379,0.032106802392272836,0.22083337039151094
6546192,2089,1,201632,229597,0.62,-0.84,9.97,-0.03,-0.01,-0.0,33.57,4.627705,26.13056262595649,184.72036320521897,10.024514950859219,0.03162277660168379,0.4629843095416352,0.4639735154627962
6586190,2070,1,201732,229911,0.64,-0.86,9.95,-0.03,-0.01,-0.0,33.57,4.667703,18.386617686641145,313.33490946632986,10.007582125568591,0.03162277660168379,0.32571542519702495,0.7859345279581282
6626193,2079,1,201886,230323,0.63,-0.86,9.94,-0.03,-0.01,-0.0,33.57,4.707706,18.289714972370398,453.85145588068275,9.997004551364373,0.03162277660168379,0.32399773123327036,1.1376898376885316
6666189,2097,1,201997,230598,0.62,-0.86,9.96,-0.03,-0.01,-0.0,33.57,4.747702,45.04463894772953,554.912464427512,10.016266769610322,0.03162277660168379,0.7982545336256588,1.3906760323408773
6706192,2098,1,202084,230829,0.64,-0.85,9.93,-0.03,-0.01,-0.0,33.57,4.787705,42.286575566339344,551.3723186635685,9.986841342486622,0.03162277660168379,0.7493652031510769,1.3818139794263782
6746190,2085,1,202038,230409,0.62,-0.88,9.96,-0.03,-0.01,-0.0,33.57,4.827703,32.24165255981851,404.20064056742086,10.018003793171573,0.03162277660168379,0.5713092658687374,1.0133988672331151
6786192,2078,1,201750,229019,0.63,-0.88,9.95,-0.03,-0.01,-0.0,33.57,4.867705,25.810447545857134,137.10949640254177,10.008686227472614,0.03162277660168379,0.4573099613571543,0.34478915158493434
6826189,2073,1,201338,228040,0.65,-0.86,9.97,-0.03,-0.01,-0.0,33.57,4.907702,21.72623432343189,-163.00099340396142,10.028110490017548,0.03162277660168379,0.38491334737536825,-0.40647794819091637
6866193,2064,1,201166,227821,0.61,-0.87,9.93,-0.03,-0.01,-0.0,33.57,4.947706,13.640443282380971,-390.01814559426174,9.986686137052672,0.03162277660168379,0.24158491155272988,-0.974770371542538
6906189,2069,1,201151,227847,0.64,-0.87,9.99,-0.03,-0.01,-0.0,33.57,4.987702,19.93664242591341,-477.348676266144,10.04821377161135,0.03162277660168379,0.3531911069501626,-1.1933850375678816
6946193,2086,1,201235,228124,0.63,-0.88,9.94,-0.03,-0.01,-0.0,33.57,5.027706,38.13237422278775,-428.16371111053746,9.998744921238865,0.03162277660168379,0.6757279822977705,-1.070260230604776
6986189,2069,1,201374,228542,0.64,-0.87,9.94,-0.03,-0.01,-0.0,33.57,5.067702,21.409609810965254,-298.8530026407183,9.99850488823204,0.03162277660168379,0.3793008728648904,-0.7465565140678523
7026199,2071,1,201505,228886,0.6,-0.86,9.95,-0.03,-0.01,-0.0,33.57,5.107712,26.05565140154256,-155.58566239044143,10.005103697613533,0.03162277660168379,0.4616564359215655,-0.38791513744745676
7066189,2081,1,201582,229121,0.62,-0.86,9.96,-0.03,-0.01,-0.0,33.57,5.147702,36.17245094698216,-39.691443981497336,10.016266769610322,0.03162277660168379,0.6409864541000437,-0.0977969433083136
7106192,2047,1,201627,229393,0.62,-0.89,9.95,-0.03,-0.01,-0.0,33.57,5.187705,2.8451719850794635,38.82123908165156,10.00894599845558,0.03162277660168379,0.05022832795220329,0.09874398979436627
7146876,2046,1,201759,229513,0.62,-0.87,9.97,-0.03,-0.01,-0.0,33.49,5.228389,6.58515575219864,88.16261419323804,10.027073351681437,0.03162277660168379,0.11652314321786957,0.2222603380664108
7187193,2043,1,201794,229600,0.63,-0.87,9.95,-0.03,-0.01,-0.0,33.49,5.268706,-1.3370003318195192,122.59816251722334,10.007811948672895,0.03162277660168379,-0.023904705350121923,0.3084629047785291
7227217,2014,1,201834,229736,0.62,-0.87,9.98,-0.03,-0.01,-0.0,33.49,5.30873,-21.062111057043193,160.09568494786836,10.03701648897719,0.03162277660168379,-0.3735512955626742,0.402330516481851
7267193,2057,1,201875,229764,0.62,-0.88,9.96,-0.03,-0.01,-0.0,33.49,5.348706,15.979718064702721,220.53644912918338,10.018003793171573,0.03162277660168379,0.2830508106598557,0.553631984297951
7307190,2031,1,201921,229897,0.62,-0.86,9.94,-0.03,-0.01,-0.0,33.49,5.388703,-3.7315877426852757,312.7983315710272,9.996379344542703,0.03162277660168379,-0.06635107408479586,0.7845913115998203
7347193,2003,1,201971,230005,0.6,-0.86,9.94,-0.03,-0.01,-0.0,33.49,5.428706,-31.754447688887407,415.4650577325675,9.995158828152757,0.03162277660168379,-0.5630832630536553,1.041597101889229
7387189,2031,1,202052,230136,0.63,-0.86,9.95,-0.03,-0.01,-0.0,33.49,5.468702,-3.6515221734341434,472.4802114588493,10.006947586552053,0.03162277660168379,-0.06493183473693827,1.1843232332245084
7427224,2012,1,202080,230053,0.63,-0.87,9.97,-0.03,-0.01,-0.0,33.49,5.508737,-18.866871315742102,420.0772988289909,10.02769664479336,0.03162277660168379,-0.33463855631688183,1.0531429328737143
7467189,2015,1,201937,228801,0.62,-0.87,9.94,-0.03,-0.01,-0.0,33.49,5.548702,-15.966909510018894,233.45673246750997,9.997244620394161,0.03162277660168379,-0.2832339395701103,0.5859753515628714
7507193,2032,1,201442,227311,0.63,-0.87,9.94,-0.03,-0.01,-0.0,33.49,5.588706,1.8462905557250364,-43.56230464635294,9.997869773106668,0.03162277660168379,0.03252219232307336,-0.10748687539698354
7547190,2007,1,201192,226663,0.62,-0.87,9.96,-0.03,-0.01,-0.0,33.49,5.628703,-19.238576243971195,-315.53832521095893,10.017130327593827,0.03162277660168379,-0.34122738425964766,-0.788324910448303
7587193,2018,1,201032,226504,0.62,-0.87,9.95,-0.03,-0.01,-0.0,33.49,5.668706,-10.80383172053482,-490.2742192305135,10.007187417051805,0.03162277660168379,-0.19171341178991463,-1.2257415712636244
7627190,2015,1,201033,226616,0.63,-0.87,9.93,-0.03,-0.01,-0.0,33.49,5.708703,-8.410675156270008,-529.8919505116173,9.987927712994322,0.03162277660168379,-0.14929240618967915,-1.3249167053898723
7667193,2010,1,201083,226950,0.63,-0.85,9.95,-0.03,-0.01,-0.0,33.49,5.748706,-16.607048905340317,-461.6539444149037,10.006093143680005,0.03162277660168379,-0.2945810270441819,-1.154096388619812
7707189,2011,1,201150,227248,0.62,-0.86,9.97,-0.03,-0.01,-0.0,33.49,5.788702,-9.291543127440066,-347.4817558411154,10.026210650091091,0.03162277660168379,-0.16490663958169816,-0.8682889546970779
7747193,2011,1,201250,227530,0.63,-0.86,9.97,-0.03,-0.01,-0.0,33.49,5.828706,-15.769734942943048,-241.271368221131,10.026833996830705,0.03162277660168379,-0.2797388304163479,-0.6024123106491446
7787190,2009,1,201296,227629,0.64,-0.87,9.94,-0.03,-0.01,-0.0,33.49,5.868703,-6.039536253731857,-164.55547481826588,9.99850488823204,0.03162277660168379,-0.10726168485473483,-0.410369284160322
7827193,2016,1,201323,227683,0.61,-0.87,9.94,-0.03,-0.01,-0.0,33.49,5.908706,-12.3409902473355,-109.80010105454116,9.996629431963555,0.03162277660168379,-0.21896102753205202,-0.27330006385036665
7867189,1977,1,201348,227821,0.64,-0.86,9.98,-0.03,-0.01,-0.0,33.49,5.948702,-34.65272400690871,-58.380844117608675,10.037410024503332,0.03162277660168379,-0.6144580029071598,-0.1445821504693813
7907193,2000,1,201480,228151,0.62,-0.88,9.94,-0.03,-0.01,-0.0,33.49,5.988706,-25.778817855002156,5.7655238088774565,9.998119823246768,0.03162277660168379,-0.4571594674970305,0.01599556150715493
7947190,1998,1,201548,228425,0.62,-0.87,9.95,-0.03,-0.01,-0.0,33.49,6.028703,-16.890701051697363,93.76726587169968,10.007187417051805,0.03162277660168379,-0.299609034600732,0.23629047214951637
7987193,2009,1,201672,228771,0.62,-0.88,9.92,-0.03,-0.01,-0.0,33.49,6.068706,-8.418334477678417,211.20474003203066,9.978236317105344,0.03162277660168379,-0.14942817504041456,0.5302719010369829
8027190,2015,1,201686,229064,0.63,-0.85,9.95,-0.03,-0.01,-0.0,33.49,6.108703,-7.06839586880002,347.59460368798443,10.006093143680005,0.03162277660168379,-0.12549921270576814,0.8716968787966632
8067193,2000,1,201764,229409,0.63,-0.88,9.96,-0.03,-0.01,-0.0,33.49,6.148706,-9.908975925131804,461.46619238809643,10.018627650531784,0.03162277660168379,-0.17585123073789632,1.1567518205441472
8107190,1997,1,201840,229651,0.61,-0.87,9.93,-0.03,-0.01,-0.0,33.49,6.188703,-27.432907229365586,484.1655266831674,9.986686137052672,0.03162277660168379,-0.4864797951600545,1.2135751027083115
8147880,1963,1,201869,229255,0.63,-0.83,9.94,-0.03,-0.01,-0.0,33.41,6.229393,-48.161769104692006,357.4019411891884,9.994468470108853,0.03162277660168379,-0.8539188414933504,0.8962476034507828
8186189,1998,1,201533,227605,0.62,-0.86,9.96,-0.03,-0.01,-0.0,33.41,6.267702,-19.81762988306516,84.7991753952411,10.016266769610322,0.03162277660168379,-0.3514916678563157,0.21384063600043526
8226193,1999,1,201025,226356,0.62,-0.86,9.95,-0.03,-0.01,-0.0,33.41,6.307706,-20.626084382347,-248.4499467443808,10.006323000982928,0.03162277660168379,-0.36582230269804666,-0.6203824584808723
8266189,1975,1,200765,225922,0.61,-0.85,9.96,-0.03,-0.01,-0.0,33.41,6.347702,-34.47691883514792,-515.4877297946845,10.014799049406834,0.03162277660168379,-0.6113416868720215,-1.2888585951601415
8306193,1986,1,200723,225986,0.61,-0.86,9.96,-0.03,-0.01,-0.0,33.41,6.387706,-38.628840774183374,-622.9024405825999,10.015652749571544,0.03162277660168379,-0.6849385030843661,-1.5577500234435333
8346189,1964,1,200820,226328,0.65,-0.86,9.94,-0.03,-0.01,-0.0,33.41,6.427702,-45.59053569906938,-562.9498852084396,9.998284852913523,0.03162277660168379,-0.8083412523259078,-1.4076706895650797
8386193,2085,1,200976,226903,0.63,-0.86,9.97,-0.03,-0.01,-0.0,33.41,6.467706,64.26247063451747,-404.3442962412071,10.026833996830705,0.03162277660168379,1.1389091141838092,-1.0106330488332314
8426189,2155,1,201157,227366,0.65,-0.88,9.92,-0.03,-0.01,-0.0,33.41,6.507702,138.440118656628,-235.38239102409017,9.980145289523595,0.03162277660168379,2.453779386001952,-0.5876704240115949
8467193,2122,1,201230,227559,0.6,-0.86,9.96,-0.03,-0.01,-0.0,33.41,6.548706,105.85862143663478,-108.36881358547984,10.015048676866229,0.03162277660168379,1.8762409596942742,-0.26971711949370486
8507190,2142,1,201246,227734,0.63,-0.86,9.95,-0.03,-0.01,-0.0,33.41,6.588703,122.41577889144993,-24.5967995221954,10.006947586552053,0.03162277660168379,2.1697325262731892,-0.06001049414954231
8547193,2121,1,201344,228054,0.62,-0.88,9.96,-0.03,-0.01,-0.0,33.41,6.628706,101.50083709862132,40.82107972583097,10.018003793171573,0.03162277660168379,1.7989950341380925,0.1037501942817043
8587188,2112,1,201495,228325,0.64,-0.86,9.96,-0.03,-0.01,-0.0,33.41,6.668701,95.51413988121841,106.92384040055026,10.017524644342034,0.03162277660168379,1.6928750585466164,0.269225347553729
8625192,2167,1,201538,228598,0.63,-0.87,9.94,-0.03,-0.01,-0.0,33.41,6.706705,140.8414102070591,177.4847139473963,9.997869773106668,0.03162277660168379,2.4963445920689984,0.44586050236410535
8665205,2114,1,201631,228917,0.61,-0.85,9.93,-0.03,-0.01,-0.0,33.41,6.746718,97.39511081823233,254.11196495081933,9.984963695477315,0.03162277660168379,1.7262170804788337,0.6376816301835779
8705192,2064,1,201690,229082,0.62,-0.88,9.97,-0.03,-0.01,-0.0,33.41,6.786705,36.782572024164196,347.2542076530306,10.027945951190603,0.03162277660168379,0.6518014379663049,0.8708447648231735
8745189,2029,1,201807,229344,0.62,-0.84,9.95,-0.03,-0.01,-0.0,33.41,6.826702,4.207938981272855,465.05731079613486,10.004623930963122,0.03162277660168379,0.07438468581050973,1.1657414733653404
8785192,2017,1,201874,229540,0.62,-0.89,9.96,-0.03,-0.01,-0.0,33.41,6.866705,-7.335758226843903,587.1836417690608,10.01888716375227,0.03162277660168379,-0.13023846807135092,1.4714605254899478
8825189,2025,1,201956,229767,0.6,-0.85,9.96,-0.03,-0.01,-0.0,33.41,6.906702,-9.41196300843237,653.117882662251,10.014194925204922,0.03162277660168379,-0.1670411979813587,1.6365138229061311
8865222,1971,1,201987,229772,0.6,-0.86,9.97,-0.03,-0.01,-0.0,33.41,6.946735,-55.58626614866525,588.7487789362294,10.024993765584096,0.03162277660168379,-0.9855252041460489,1.475378536023629
8905188,1930,1,201860,228672,0.63,-0.85,9.94,-0.03,-0.01,-0.0,33.41,6.986701,-108.15127407816652,361.4938038627441,9.99614925858953,0.03162277660168379,-1.9172906093228799,0.9064907702438705
8945192,1897,1,201352,226918,0.63,-0.87,9.97,-0.03,-0.01,-0.0,33.41,7.026705,-140.08044118540698,21.003103770501152,10.02769664479336,0.03162277660168379,-2.483265855945827,0.05413982135209553
8985189,1917,1,200946,226167,0.61,-0.87,9.93,-0.03,-0.01,-0.0,33.41,7.066702,-121.46195612292145,-315.08462709485303,9.986686137052672,0.03162277660168379,-2.1532352716968464,-0.7871891671822798
9025212,1949,1,200826,226059,0.62,-0.86,9.98,-0.03,-0.01,-0.0,33.41,7.106725,-100.11107115219168,-527.3494511309024,10.036154642092757,0.03162277660168379,-1.7747702667582523,-1.3185520623640214
9065210,1936,1,200829,226199,0.62,-0.87,9.96,-0.03,-0.01,-0.0,33.41,7.146723,-107.64812184137901,-563.8823205141445,10.017130327593827,0.03162277660168379,-1.9083717512033356,-1.4100048564524055
9105192,2006,1,200953,226664,0.61,-0.87,9.97,-0.03,-0.01,-0.0,33.41,7.186705,-50.0971219739863,-460.756592934863,10.026459993437365,0.03162277660168379,-0.8882248355652369,-1.1518500471329667
9145189,2032,1,201114,227243,0.62,-0.87,9.93,-0.03,-0.01,-0.0,33.41,7.226702,-23.764338884996928,-303.6548119148152,9.987301937961023,0.03162277660168379,-0.42145088706221856,-0.7585768913940613
9185879,2000,1,201269,227490,0.62,-0.86,9.96,-0.03,-0.01,-0.0,33.25,7.267392,-60.85068319070867,-166.57108942271392,10.016266769610322,0.03162277660168379,-1.0788420678051989,-0.4154149756292402
9226193,2034,1,201277,227649,0.62,-0.87,9.96,-0.03,-0.01,-0.0,33.25,7.307706,-34.10127323213716,-74.72729231566034,10.017130327593827,0.03162277660168379,-0.6046830066724171,-0.18550224205733068
9266193,2067,1,201394,227919,0.62,-0.87,9.95,-0.03,-0.01,-0.0,33.25,7.347706,-3.343974390754434,-11.829900790897932,10.007187417051805,0.03162277660168379,-0.05948025400619577,-0.02805109483238456
9306190,2064,1,201449,228177,0.61,-0.86,9.96,-0.03,-0.01,-0.0,33.25,7.387703,-11.482477736719611,46.14839540266738,10.015652749571544,0.03162277660168379,-0.2037430662149675,0.11708607268004942
9346193,2086,1,201566,228514,0.61,-0.85,9.93,-0.03,-0.01,-0.0,33.25,7.427706,0.7778625557679572,105.58487048042127,9.984963695477315,0.03162277660168379,0.013583276730832818,0.26587350187438946
9386189,2095,1,201633,228824,0.61,-0.86,9.94,-0.03,-0.01,-0.0,33.25,7.467702,14.3271120058331,158.31207935271465,9.99576410285877,0.03162277660168379,0.25375677619294323,0.3978656135606667
9426193,2096,1,201716,229039,0.62,-0.86,9.98,-0.03,-0.01,-0.0,33.25,7.507706,-3.1893619176157113,202.8350373972297,10.036154642092757,0.03162277660168379,-0.05673959897057385,0.5093200101900907
9466190,2106,1,201781,229285,0.62,-0.87,9.94,-0.03,-0.01,-0.0,33.25,7.547703,15.812154773467043,255.17648092243329,9.997244620394161,0.03162277660168379,0.2800805898970172,0.6403464348266116
9505192,2167,1,201779,229517,0.61,-0.88,9.95,-0.03,-0.01,-0.0,33.25,7.586705,60.978608508692794,331.4395548710273,10.007447226940544,0.03162277660168379,1.080699494424642,0.8312559176050772
9545189,2142,1,201859,229729,0.62,-0.85,9.96,-0.03,-0.01,-0.0,33.25,7.626702,35.55735431085178,415.05197225141404,10.015413121783844,0.03162277660168379,0.6300832736581119,1.0405630243013855
9585192,2117,1,201989,229970,0.62,-0.87,9.95,-0.03,-0.01,-0.0,33.25,7.666705,10.351815810629565,444.505281051888,10.007187417051805,0.03162277660168379,0.18329082144621328,1.1142935423369302
9625189,2130,1,201997,229934,0.63,-0.85,9.93,-0.03,-0.01,-0.0,33.25,7.706702,6.490221511239156,346.09492750814553,9.986205485568581,0.03162277660168379,0.11484034233992803,0.8679427368639473
9665192,2095,1,201801,228586,0.61,-0.85,9.95,-0.03,-0.01,-0.0,33.25,7.746705,-13.66273048752965,94.44261549070684,10.00485382202059,0.03162277660168379,-0.24239014661626768,0.23798107599989615
9705189,2135,1,201309,227014,0.62,-0.85,9.95,-0.03,-0.01,-0.0,33.25,7.786702,1.8095678261325605,-250.1101622638913,10.005468504772777,0.03162277660168379,0.031871246563418505,-0.6245384788157486
9745192,2119,1,200977,226461,0.63,-0.85,9.94,-0.03,-0.01,-0.0,33.25,7.826705,2.49963957466026,-565.6785460814059,9.99614925858953,0.03162277660168379,0.04410343310147344,-1.4145013509712403
9785189,2128,1,200933,226401,0.63,-0.87,9.95,-0.03,-0.01,-0.0,33.25,7.866702,-6.764657289088786,-740.8685090132623,10.007811948672895,0.03162277660168379,-0.12011515376731914,-1.853054683267333
9825192,2135,1,200997,226672,0.62,-0.86,9.95,-0.03,-0.01,-0.0,33.25,7.906705,8.87478663704113,-739.0069869895126,10.006323000982928,0.03162277660168379,0.1571090564166634,-1.8483947320178682
9865189,2131,1,201152,227315,0.62,-0.88,9.95,-0.03,-0.01,-0.0,33.25,7.946702,-2.726120072959866,-607.6047887070913,10.008061750409016,0.03162277660168379,-0.04852819100009451,-1.5194553854743513
9905192,2130,1,201358,227850,0.63,-0.87,9.95,-0.03,-0.01,-0.0,33.25,7.986705,-1.9767706541848085,-433.6874872569603,10.007811948672895,0.03162277660168379,-0.0352452506504917,-1.0840879088309177
9945189,2146,1,201511,228192,0.6,-0.85,9.96,-0.03,-0.01,-0.0,33.25,8.026702,13.121230080823635,-285.7365285097007,10.014194925204922,0.03162277660168379,0.23238135735996593,-0.7137220220577665
9985192,2151,1,201611,228456,0.63,-0.84,9.97,-0.03,-0.01,-0.0,33.25,8.066705,17.33734254449555,-184.23904029257292,10.025138403034644,0.03162277660168379,0.30711601246080883,-0.4596431871040847
10025198,2167,1,201722,228753,0.61,-0.86,9.94,-0.03,-0.01,-0.0,33.25,8.106711,36.382971184896,-112.30041927222051,9.99576410285877,0.03162277660168379,0.6447181281262474,-0.2795591146990184
10065192,2189,1,201835,229073,0.61,-0.84,9.93,-0.03,-0.01,-0.0,33.25,8.146705,56.19322829082398,-45.50164892248319,9.984117387130421,0.03162277660168379,0.9958740199643734,-0.1123416392232485
10105192,2215,1,201977,229419,0.63,-0.85,9.95,-0.03,-0.01,-0.0,33.25,8.186705,88.42222102835011,28.551644579258333,10.006093143680005,0.03162277660168379,1.5671639647275777,0.07303609640263119
10145193,2217,1,202081,229794,0.62,-0.86,9.96,-0.03,-0.01,-0.0,33.25,8.226706,88.71588617339417,113.02811921163027,10.016266769610322,0.03162277660168379,1.5723694623320918,0.2845061990880424
10185878,2165,1,202263,230057,0.62,-0.86,9.95,-0.03,-0.01,-0.0,33.05,8.267391,42.03154142445614,214.1186062644615,10.006323000982928,0.03162277660168379,0.7448444772935932,0.5375661873346212
10226193,2165,1,202343,230314,0.63,-0.87,9.96,-0.03,-0.01,-0.0,33.05,8.307706,46.06769647735447,340.7803631466526,10.017754239349257,0.03162277660168379,0.8163892139226476,0.8546387788549981
10266193,2170,1,202498,230617,0.62,-0.88,9.98,-0.03,-0.01,-0.0,33.05,8.347706,50.551733483188976,485.2973724119012,10.037888224123638,0.03162277660168379,0.8958730896441696,1.2164084540469062
10306193,2129,1,202613,230979,0.62,-0.88,9.97,-0.03,-0.01,-0.0,33.05,8.387706,21.017970806502987,603.7055545356395,10.027945951190603,0.03162277660168379,0.3723586942169722,1.5128198578308467
10346190,2138,1,202734,231209,0.62,-0.87,9.94,-0.03,-0.01,-0.0,33.05,8.427703,25.820296811710076,624.986994790984,9.997244620394161,0.03162277660168379,0.457484549082899,1.5660937234327923
10386193,2112,1,202797,230736,0.63,-0.87,9.96,-0.03,-0.01,-0.0,33.05,8.467706,12.408728368951405,496.20903700332235,10.017754239349257,0.03162277660168379,0.21975157811324353,1.2437236425849982
10426193,2078,1,202420,229325,0.63,-0.86,9.96,-0.03,-0.01,-0.0,33.05,8.507706,-21.91155466438332,232.614697698476,10.0168907351533,0.03162277660168379,-0.38860850183247364,0.5838674844928118
10466193,2081,1,202031,228376,0.62,-0.86,9.98,-0.03,-0.01,-0.0,33.05,8.547706,-12.326874543223383,-73.94158171985671,10.036154642092757,0.03162277660168379,-0.2187108130779988,-0.1835353713859552
10505189,2097,1,201841,228148,0.63,-0.86,9.94,-0.03,-0.01,-0.0,33.05,8.586702,10.882915827548308,-304.4143039986608,9.997004551364373,0.03162277660168379,0.19270508089267638,-0.760478129219841
10545192,2096,1,201863,228208,0.62,-0.85,9.94,-0.03,-0.01,-0.0,33.05,8.626705,10.101354289745927,-384.4756203763698,9.995523998270425,0.03162277660168379,0.17885114970107935,-0.9608957587338858
10585193,2064,1,201977,228705,0.63,-0.86,9.95,-0.03,-0.01,-0.0,33.05,8.666706,-10.747742488427045,-322.67970052379496,10.006947586552053,0.03162277660168379,-0.19071917611604103,-0.8062019274201
10625192,2041,1,202152,229241,0.64,-0.86,9.96,-0.03,-0.01,-0.0,33.05,8.706705,-34.57959375356712,-189.53192078719795,10.017524644342034,0.03162277660168379,-0.613161698715084,-0.47289286385220797
10665189,2018,1,202226,229491,0.64,-0.87,9.95,-0.03,-0.01,-0.0,33.05,8.746702,-49.073090934316326,-62.23479615037229,10.008446432888572,0.03162277660168379,-0.8700728988648482,-0.15422975515056506
10705192,2006,1,202302,229585,0.62,-0.86,9.96,-0.03,-0.01,-0.0,33.05,8.786705,-57.556676475176296,18.43631645815401,10.016266769610322,0.03162277660168379,-1.0204526254204547,0.04771437830566356
10745193,2008,1,202302,229710,0.62,-0.86,9.97,-0.03,-0.01,-0.0,33.05,8.826706,-53.65827785225328,53.59202171649939,10.026210650091091,0.03162277660168379,-0.9513497542233206,0.13571971509692504
10785193,2023,1,202412,229821,0.62,-0.86,9.96,-0.03,-0.01,-0.0,33.05,8.866706,-30.00323481204586,65.20140238203739,10.016266769610322,0.03162277660168379,-0.5320413277432,0.16478149747052995
10825189,2033,1,202442,229984,0.62,-0.85,9.95,-0.03,-0.01,-0.0,33.05,8.906702,-22.8314186790037,76.31285039902538,10.005468504772777,0.03162277660168379,-0.4049139776623234,0.19259680419777853
10865192,2009,1,202490,230177,0.63,-0.86,9.93,-0.03,-0.01,-0.0,33.05,8.946705,-37.99859906056097,106.18652763949451,9.987061629928995,0.03162277660168379,-0.6737668615535534,0.26737963126442765
10905189,2011,1,202556,230254,0.62,-0.87,9.96,-0.03,-0.01,-0.0,33.05,8.986702,-37.24667543589526,170.3661589430399,10.017130327593827,0.03162277660168379,-0.6604382909246224,0.42804061150935446
10945192,2016,1,202558,230518,0.62,-0.86,9.94,-0.03,-0.01,-0.0,33.05,9.026705,-29.71883311510571,270.30961589013845,9.996379344542703,0.03162277660168379,-0.5270000336804687,0.6782292373405611
10985189,2022,1,202698,230706,0.62,-0.87,9.96,-0.03,-0.01,-0.0,33.05,9.066702,-19.05016176488328,375.4810104071869,10.017130327593827,0.03162277660168379,-0.3378875561046898,0.94150496818605
11025199,2027,1,202706,230959,0.63,-0.86,9.96,-0.03,-0.01,-0.0,33.05,9.106712,-18.89387439900621,420.92828745239916,10.0168907351533,0.03162277660168379,-0.33511721198173683,1.0552732141426642
11065189,2004,1,202777,230895,0.63,-0.85,9.96,-0.03,-0.01,-0.0,33.05,9.146702,-34.060120132989894,338.7714427672404,10.016037140506219,0.03162277660168379,-0.6039535283443123,0.8496098450510025
11105193,2026,1,202552,229612,0.63,-0.86,9.96,-0.03,-0.01,-0.0,33.05,9.186706,-18.68164097165798,110.43480340716395,10.0168907351533,0.03162277660168379,-0.3313551700223708,0.27801434722214985
11145193,2027,1,202123,227886,0.63,-0.86,9.94,-0.03,-0.01,-0.0,33.05,9.226706,-13.181458783848514,-202.6046343275663,9.997004551364373,0.03162277660168379,-0.23385914202511413,-0.505617809901262
11185879,2006,1,201739,227365,0.62,-0.89,9.96,-0.03,-0.01,-0.0,33.03,9.267392,-37.02863819468556,-483.5507541338296,10.01888716375227,0.03162277660168379,-0.6565733707733334,-1.2089107096470026
11226193,2009,1,201639,227425,0.62,-0.85,9.98,-0.03,-0.01,-0.0,33.03,9.307706,-35.79367518980232,-628.868051318363,10.035302686017996,0.03162277660168379,-0.6346824617837122,-1.5726837469489598
11266193,2005,1,201771,227660,0.63,-0.88,9.94,-0.03,-0.01,-0.0,33.03,9.347706,-38.39253586093495,-608.5151113683033,9.998744921238865,0.03162277660168379,-0.6807497708476375,-1.5217341977410934
11306193,2006,1,201885,228172,0.63,-0.89,9.96,-0.03,-0.01,-0.0,33.03,9.387706,-43.58318237991597,-472.3080023569968,10.019510966110072,0.03162277660168379,-0.7727589809170927,-1.1807667099943187
11346193,2015,1,202026,228549,0.63,-0.87,9.96,-0.03,-0.01,-0.0,33.03,9.427706,-31.54748852617483,-304.41413236896955,10.017754239349257,0.03162277660168379,-0.559414712516032,-0.7604776995789428
11386190,2006,1,202078,228785,0.63,-0.86,9.97,-0.03,-0.01,-0.0,33.03,9.467703,-47.673956492277135,-168.41827283204032,10.026833996830705,0.03162277660168379,-0.8452718929935669,-0.4200390330008217
11426193,2023,1,202148,228960,0.63,-0.86,9.96,-0.03,-0.01,-0.0,33.03,9.507706,-29.48000512385104,-82.89212441284873,10.0168907351533,0.03162277660168379,-0.5227665774554182,-0.20594128013882657
11464192,2109,1,202215,229101,0.63,-0.87,9.93,-0.03,-0.01,-0.0,33.03,9.545705,52.65590610616056,-32.620713288723934,9.987927712994322,0.03162277660168379,0.9331715764861122,-0.08009677113412236
11504192,2131,1,202269,229142,0.62,-0.88,9.95,-0.03,-0.01,-0.0,33.03,9.585705,70.46392638333658,8.197271298283884,10.008061750409016,0.03162277660168379,1.2488358916368694,0.022082959135046796
11544192,2096,1,202319,229322,0.62,-0.86,9.96,-0.03,-0.01,-0.0,33.03,9.625705,37.57037586300903,63.37147911638692,10.016266769610322,0.03162277660168379,0.6657660199575338,0.16020064744598078
11584192,2111,1,202445,229545,0.62,-0.86,9.94,-0.03,-0.01,-0.0,33.03,9.665705,43.088466749763604,153.37090557377104,9.996379344542703,0.03162277660168379,0.7635794968963213,0.3854963648323438
11624189,2110,1,202498,229728,0.63,-0.86,9.96,-0.03,-0.01,-0.0,33.03,9.705702,47.73710757355289,289.7872708976721,10.0168907351533,0.03162277660168379,0.8459811338657058,0.7269876842624896
11664192,2107,1,202603,229943,0.63,-0.84,9.95,-0.03,-0.01,-0.0,33.03,9.745705,34.94125718467501,457.49311526340966,10.00524862259804,0.03162277660168379,0.6191623585662643,1.146806009817659
11704189,2096,1,202709,230298,0.62,-0.87,9.94,-0.03,-0.01,-0.0,33.03,9.785702,27.83909836282436,599.2259033372177,9.997244620394161,0.03162277660168379,0.4932697514321201,1.5016059393636327
11744192,2101,1,202846,230520,0.62,-0.87,9.97,-0.03,-0.01,-0.0,33.03,9.825705,27.57334689275724,629.0618015826213,10.027073351681437,0.03162277660168379,0.48855905060780885,1.5762941942076527
11784189,2114,1,202757,230090,0.61,-0.86,9.93,-0.03,-0.01,-0.0,33.03,9.865702,40.06689344897493,481.942624818908,9.98581994630386,0.03162277660168379,0.7100191992424755,1.2080105086892046
11824192,2127,1,202384,228224,0.62,-0.86,9.96,-0.03,-0.01,-0.0,33.03,9.905705,53.1545269002608,168.56095991878328,10.016266769610322,0.03162277660168379,0.9420101104185622,0.4235216537203553
11864192,2119,1,201844,226800,0.62,-0.87,9.95,-0.03,-0.01,-0.0,33.03,9.945705,41.35495898571553,-212.11496955553747,10.007187417051805,0.03162277660168379,0.7328514017667299,-0.5294250482594435
11904192,2097,1,201562,226412,0.62,-0.86,9.96,-0.03,-0.01,-0.0,33.03,9.985705,23.13402733128557,-521.7599527137602,10.016266769610322,0.03162277660168379,0.4098678346671262,-1.3045598614657603
11944193,2108,1,201504,226483,0.61,-0.88,9.96,-0.03,-0.01,-0.0,33.03,10.025706,28.486922310143928,-660.7409262732333,10.017389879604368,0.03162277660168379,0.5047530549934366,-1.6524711690557392
11984192,2097,1,201542,226674,0.62,-0.85,9.93,-0.03,-0.01,-0.0,33.03,10.065705,24.965250836693787,-618.5178647276341,9.98557960260695,0.03162277660168379,0.44232803544887866,-1.5467741072453653
12024214,2102,1,201666,227139,0.59,-0.86,9.93,-0.03,-0.01,-0.0,33.03,10.105727,20.760121608171776,-464.171537572955,9.98461816996524,0.03162277660168379,0.3677880687720027,-1.1603986838560902
12064192,2096,1,201853,227607,0.61,-0.85,9.94,-0.03,-0.01,-0.0,33.03,10.145705,28.8183693998087,-291.9544595278892,9.994908703935218,0.03162277660168379,0.5106282739643986,-0.7292873793555158
12104192,2098,1,201950,227983,0.63,-0.86,9.97,-0.03,-0.01,-0.0,33.03,10.185705,15.640035653392331,-164.95933458280257,10.026833996830705,0.03162277660168379,0.2770296126790515,-0.4113802669960611
12144199,2095,1,202019,228228,0.63,-0.86,9.93,-0.03,-0.01,-0.0,33.03,10.225712,32.73109494542002,-92.47060473085006,9.987061629928995,0.03162277660168379,0.579985103668331,-0.22991910621683057
12184193,2112,1,202024,228312,0.62,-0.85,9.95,-0.03,-0.01,-0.0,33.03,10.265706,33.785673893412834,-46.40801531846394,10.005468504772777,0.03162277660168379,0.5986785314727241,-0.11461054776450533
12224879,2031,1,202092,228521,0.62,-0.87,9.92,-0.03,-0.01,-0.0,32.85,10.306392,-31.59634498335139,5.6471839776174155,9.977359370093874,0.03162277660168379,-0.5602807402864012,0.015699321206204386
12265193,2022,1,202206,228833,0.63,-0.86,9.94,-0.03,-0.01,-0.0,32.85,10.346706,-43.98999263585546,79.75530012535414,9.997004551364373,0.03162277660168379,-0.7799700846129948,0.20121429445508554
12305193,2039,1,202357,229292,0.62,-0.85,9.95,-0.03,-0.01,-0.0,32.85,10.386706,-28.422166151978935,178.25817998558756,10.005468504772777,0.03162277660168379,-0.5040153625871509,0.44779672121357544
12345230,2019,1,202441,229661,0.61,-0.86,9.96,-0.03,-0.01,-0.0,32.85,10.426743,-32.51174688663826,301.29089218234463,10.015652749571544,0.03162277660168379,-0.5765071208941938,0.7557847189980226
12385193,2045,1,202549,229765,0.62,-0.86,9.94,-0.03,-0.01,-0.0,32.85,10.466706,-23.47497513460336,444.5436356087257,9.996379344542703,0.03162277660168379,-0.41632163582172493,1.114389555364323
12425193,2026,1,202613,229831,0.63,-0.86,9.97,-0.03,-0.01,-0.0,32.85,10.506706,-17.891434798045452,579.9187991242006,10.026833996830705,0.03162277660168379,-0.31734800433304383,1.4532744325358127
12465192,2059,1,202708,230163,0.62,-0.85,9.95,-0.03,-0.01,-0.0,32.85,10.546705,-1.1957953012410378,643.8174465159734,10.005468504772777,0.03162277660168379,-0.021401710150227283,1.6132320252763002
12505193,2042,1,202766,230233,0.63,-0.86,9.95,-0.03,-0.01,-0.0,32.85,10.586706,-2.5442420066612508,561.7638242882671,10.006947586552053,0.03162277660168379,-0.04530422705882025,1.407827053138014
12545193,2034,1,202586,228969,0.6,-0.86,9.97,-0.03,-0.01,-0.0,32.85,10.626706,-12.898396166530146,305.37742345607097,10.024993765584096,0.03162277660168379,-0.22884158443870997,0.7660145396888459
12585190,2037,1,202071,227272,0.6,-0.86,9.98,-0.03,-0.01,-0.0,32.85,10.666703,-9.477842785436291,-63.34085642164311,10.03493896344168,0.03162277660168379,-0.16820898049544764,-0.15699855770961813
12625193,2010,1,201680,226384,0.61,-0.84,9.94,-0.03,-0.01,-0.0,32.85,10.706706,-26.928769614815938,-408.5057734815319,9.994063237742694,0.03162277660168379,-0.47754347027039157,-1.0210504818897626
12665190,2029,1,201516,226173,0.64,-0.88,9.96,-0.03,-0.01,-0.0,32.85,10.746703,-15.090867741602679,-597.8330461510013,10.019261449827528,0.03162277660168379,-0.26770525527132893,-1.494993765706901
12705193,2032,1,201594,226621,0.64,-0.86,9.97,-0.03,-0.01,-0.0,32.85,10.786706,-0.7738076602009524,-584.7174979723236,10.02746727743352,0.03162277660168379,-0.013921572681958079,-1.4621615916348831
12745193,2015,1,201792,227501,0.64,-0.86,9.97,-0.03,-0.01,-0.0,32.85,10.826706,-24.265160645317827,-429.61442157050834,10.02746727743352,0.03162277660168379,-0.43032843524127773,-1.07389179656763
12785193,2013,1,202091,227990,0.62,-0.87,9.94,-0.03,-0.01,-0.0,32.85,10.866706,-17.752464383103266,-245.20264141766293,9.997244620394161,0.03162277660168379,-0.31488461984806737,-0.6122534735311528
12825190,2039,1,202172,227911,0.61,-0.85,9.94,-0.03,-0.01,-0.0,32.85,10.906703,2.6096815143324057,-113.21625754406517,9.994908703935218,0.03162277660168379,0.04605403249342209,-0.28185173420324194
12865193,2031,1,202156,227749,0.62,-0.86,9.95,-0.03,-0.01,-0.0,32.85,10.946706,2.5783677073403974,-41.176068406510204,10.006323000982928,0.03162277660168379,0.04549896509766198,-0.10151340615756264
12905190,2035,1,202202,228084,0.64,-0.88,9.96,-0.03,-0.01,-0.0,32.85,10.986703,-0.9176625908000159,12.685049664820678,10.019261449827528,0.03162277660168379,-0.01647153991255549,0.033317222356031496
12945193,2026,1,202335,228713,0.62,-0.86,9.96,-0.03,-0.01,-0.0,32.85,11.026706,-1.6573756255725254,80.73169888742513,10.016266769610322,0.03162277660168379,-0.02958366607229618,0.20365851513753735
12985193,2035,1,202576,229120,0.59,-0.85,9.98,-0.03,-0.01,-0.0,32.85,11.066706,-0.01293839818669138,154.3735064933985,10.033493907906657,0.03162277660168379,-0.00043443201305262404,0.3880061774203902
13025200,2031,1,202665,229121,0.62,-0.88,9.94,-0.03,-0.01,-0.0,32.85,11.106713,-0.3847964710981912,206.51284021281407,9.998119823246768,0.03162277660168379,-0.007025974592849332,0.5185266602361887
13065193,2028,1,202639,228940,0.62,-0.87,9.96,-0.03,-0.01,-0.0,32.85,11.146706,-3.7604641220210064,236.32388122084188,10.017130327593827,0.03162277660168379,-0.0668629357272003,0.5931526899155908
13105193,2041,1,202634,229179,0.62,-0.85,9.95,-0.03,-0.01,-0.0,32.85,11.186706,1.251955336906526,281.99419260096914,10.005468504772777,0.03162277660168379,0.021987028003950537,0.7074792581022945
13145193,2032,1,202787,229882,0.62,-0.85,9.94,-0.03,-0.01,-0.0,32.85,11.226706,4.13804503866356,382.33600548253514,9.995523998270425,0.03162277660168379,0.07314574834393311,0.9586650890220629
13185193,2025,1,202979,230520,0.62,-0.87,9.97,-0.03,-0.01,-0.0,32.85,11.266706,-23.95472619376992,523.6074198118106,10.027073351681437,0.03162277660168379,-0.42482568552391214,1.312310060888313
13225879,2006,1,203163,230917,0.61,-0.87,9.96,-0.03,-0.01,-0.0,32.85,11.307392,-21.902368369249977,626.9477657546843,10.016516360491806,0.03162277660168379,-0.38844566590142093,1.571002124722509
13264192,2071,1,203246,230878,0.61,-0.87,9.97,-0.03,-0.01,-0.0,32.85,11.345705,16.742208416188287,596.1237030768405,10.026459993437365,0.03162277660168379,0.2965666867013513,1.4938401961733825
13304189,2041,1,203103,229670,0.62,-0.86,9.95,-0.03,-0.01,-0.0,32.85,11.385702,6.773997260445533,389.05353172986435,10.006323000982928,0.03162277660168379,0.11987054087605803,0.9754810839069902
13344192,2041,1,202594,227987,0.63,-0.89,9.96,-0.03,-0.01,-0.0,32.85,11.425705,-15.20070040428899,52.68586858205635,10.019510966110072,0.03162277660168379,-0.26965214502709217,0.13345134041363843
13384190,2018,1,202197,227488,0.62,-0.86,9.94,-0.03,-0.01,-0.0,32.85,11.465703,-23.847033423435793,-307.12275639959097,9.996379344542703,0.03162277660168379,-0.42291672742160247,-0.7672582027235685
13424193,2041,1,202188,227480,0.62,-0.85,9.95,-0.03,-0.01,-0.0,32.85,11.505706,-20.92354407612492,-590.9032037976616,10.005468504772777,0.03162277660168379,-0.3710950623344284,-1.477646279552538
13464189,2015,1,202140,227520,0.61,-0.86,9.94,-0.03,-0.01,-0.0,32.85,11.545702,-27.72903457797924,-750.1783054022413,9.99576410285877,0.03162277660168379,-0.4917289376948564,-1.8763599124086452
13504192,2016,1,202094,227402,0.62,-0.85,9.97,-0.03,-0.01,-0.0,32.85,11.585705,-59.81301744595732,-786.2581845337694,10.02535784897477,0.03162277660168379,-1.0604484428219574,-1.9666787352291428
13544189,1994,1,202059,227451,0.62,-0.87,9.95,-0.03,-0.01,-0.0,32.85,11.625702,-43.39659133010665,-725.9635490338761,10.007187417051805,0.03162277660168379,-0.7694514748027377,-1.8157430715898863
13584192,2021,1,202143,228062,0.62,-0.85,9.94,-0.03,-0.01,-0.0,32.85,11.665705,-69.21776804442865,-606.6769065116632,9.995523998270425,0.03162277660168379,-1.2271567074478165,-1.5171326163957286
13624189,1946,1,202505,228821,0.63,-0.86,9.96,-0.03,-0.01,-0.0,32.85,11.705702,-91.46898545534684,-472.9319297585406,10.0168907351533,0.03162277660168379,-1.6215809722432932,-1.1823285885202268
13664192,2101,1,202720,229266,0.61,-0.86,9.95,-0.03,-0.01,-0.0,32.85,11.745705,8.697659792396204,-364.95088199613787,10.005708370725182,0.03162277660168379,0.15396931245639195,-0.9120194479249684
13704192,2081,1,202799,229376,0.6,-0.85,9.95,-0.03,-0.01,-0.0,32.85,11.785705,30.261781304700154,-295.70544297811443,10.004249097258624,0.03162277660168379,0.5362141405203786,-0.7386772226088284
13744192,2085,1,202796,229296,0.62,-0.85,9.99,-0.03,-0.01,-0.0,32.85,11.825705,3.3237547872097677,-240.33939585234864,10.045247632587262,0.03162277660168379,0.05871166917295742,-0.6000793026326044
13784192,2077,1,202834,229677,0.62,-0.87,9.95,-0.03,-0.01,-0.0,32.85,11.865705,8.266324706911103,-157.337107857617,10.007187417051805,0.03162277660168379,0.146323482530274,-0.39229953386555244
13824192,2030,1,203052,230610,0.61,-0.87,9.96,-0.03,-0.01,-0.0,32.85,11.905705,-41.54533461640492,-25.706199872639107,10.016516360491806,0.03162277660168379,-0.7366361661045623,-0.06278765793447208
13864190,2065,1,203468,231329,0.62,-0.84,9.95,-0.03,-0.01,-0.0,32.85,11.945703,-12.787632038757826,138.75550423015187,10.004623930963122,0.03162277660168379,-0.22687818356695036,0.34890960578050173
13904192,2155,1,203658,231473,0.61,-0.86,9.94,-0.03,-0.01,-0.0,32.85,11.985705,84.19331277470793,302.24630460706084,9.99576410285877,0.03162277660168379,1.4922024919224135,0.7581764045464655
13944190,2190,1,203661,231472,0.6,-0.85,9.96,-0.03,-0.01,-0.0,32.85,12.025703,114.53275318374838,439.88855589947576,10.014194925204922,0.03162277660168379,2.0299983013224963,1.1027364864074585
13984199,2203,1,203678,231599,0.6,-0.89,9.95,-0.03,-0.01,-0.0,32.85,12.065712,127.1529048083817,536.8840556448538,10.007727014662219,0.03162277660168379,2.2537026467625343,1.3455454859595972
14024215,2217,1,203798,232077,0.62,-0.86,9.98,-0.03,-0.01,-0.0,32.85,12.105728,148.1102077814503,568.2018090422466,10.036154642092757,0.03162277660168379,2.625191031626936,1.4239432713269942
14064192,2212,1,203978,232051,0.62,-0.87,9.95,-0.03,-0.01,-0.0,32.85,12.145705,132.9031983506676,495.3300066317603,10.007187417051805,0.03162277660168379,2.355632139468017,1.2415231643601814
14104190,2151,1,203817,230706,0.63,-0.86,9.95,-0.03,-0.01,-0.0,32.85,12.185703,86.70429718202944,300.7516062772247,10.006947586552053,0.03162277660168379,1.5367121095528056,0.7544347236741316
14144193,2135,1,203371,229647,0.63,-0.87,9.96,-0.03,-0.01,-0.0,32.85,12.225706,57.57467731279413,29.26026172903946,10.017754239349257,0.03162277660168379,1.0203615347273025,0.07480997891940272
14184190,2097,1,203149,229042,0.62,-0.86,9.97,-0.03,-0.01,-0.0,32.85,12.265703,34.6433034623381,-215.15123203905117,10.026210650091091,0.03162277660168379,0.6138808417977415,-0.5370257293006769
14224192,2083,1,203037,228957,0.61,-0.85,9.96,-0.03,-0.01,-0.0,32.85,12.305705,9.946751891369141,-328.19242284985035,10.014799049406834,0.03162277660168379,0.17611067325031848,-0.8200019345989077
14264880,2073,1,203141,229706,0.62,-0.86,9.95,-0.03,-0.01,-0.0,32.81,12.346393,12.650798629053416,-274.00823950051023,10.006323000982928,0.03162277660168379,0.2240425066771223,-0.6843625762251718
14303192,2100,1,203446,230645,0.63,-0.86,9.97,-0.03,-0.01,-0.0,32.81,12.384705,30.809798084847866,-105.04398183620339,10.026833996830705,0.03162277660168379,0.5459282658922014,-0.2613940625184819
14343192,2107,1,203583,231239,0.61,-0.86,9.95,-0.03,-0.01,-0.0,32.81,12.424705,49.78727029408885,81.95566619141464,10.005708370725182,0.03162277660168379,0.8823222431553804,0.20672247457221601
14383192,2105,1,203728,231282,0.58,-0.86,9.96,-0.03,-0.01,-0.0,32.81,12.464705,39.12823568783897,213.53455508172664,10.013870380627063,0.03162277660168379,0.6933805861502788,0.5361041310151078
14423192,2057,1,203674,231076,0.62,-0.86,9.97,-0.03,-0.01,-0.0,32.81,12.504705,1.7596157656939868,275.399460107028,10.026210650091091,0.03162277660168379,0.030985798169757304,0.6909706530291594
14463192,2045,1,203682,231144,0.63,-0.85,9.94,-0.03,-0.01,-0.0,32.81,12.544705,-16.150383026523592,296.5333480690557,9.99614925858953,0.03162277660168379,-0.2864861844032985,0.7438751507241822
14503189,2035,1,203770,231607,0.63,-0.87,9.94,-0.03,-0.01,-0.0,32.81,12.584702,-21.468401908036274,309.5376574695252,9.997869773106668,0.03162277660168379,-0.3807531923055213,0.7764288605734366
14543192,2032,1,203864,232049,0.61,-0.86,9.96,-0.03,-0.01,-0.0,32.81,12.624705,-23.438791894943208,329.18145478427397,10.015652749571544,0.03162277660168379,-0.4156802530408497,0.8256032118157108
14583192,2039,1,203921,232139,0.6,-0.87,9.94,-0.03,-0.01,-0.0,32.81,12.664705,-20.22213009675288,360.873555309551,9.996024209654555,0.03162277660168379,-0.3586618238278765,0.9049381009852986
14623192,2032,1,203879,232060,0.6,-0.86,9.97,-0.03,-0.01,-0.0,32.81,12.704705,-20.578965513212065,412.49746769320404,10.024993765584096,0.03162277660168379,-0.364987075349658,1.0341683286942842
14663189,2012,1,203811,231853,0.61,-0.86,9.94,-0.03,-0.01,-0.0,32.81,12.744702,-47.68095482437461,481.3088808861485,9.99576410285877,0.03162277660168379,-0.8453959451719878,1.2064240564240014
14703192,1970,1,203844,232137,0.62,-0.86,9.95,-0.03,-0.01,-0.0,32.81,12.784705,-86.015874217681,525.9161680078118,10.006323000982928,0.03162277660168379,-1.5249193221841404,1.3180895541757383
14743192,1965,1,203873,232449,0.61,-0.84,9.96,-0.03,-0.01,-0.0,32.81,12.824705,-91.62093368308608,466.62058708136965,10.013955262532383,0.03162277660168379,-1.6242744009625514,1.1696548255501105
14783192,1943,1,203851,231546,0.63,-0.86,9.96,-0.03,-0.01,-0.0,32.81,12.864705,-121.57691140579281,239.3448594078858,10.0168907351533,0.03162277660168379,-2.1552729648303757,0.6007151097514648
14823189,1901,1,203367,229503,0.62,-0.85,9.96,-0.03,-0.01,-0.0,32.81,12.904702,-152.38260728778542,-132.01562830237572,10.015413121783844,0.03162277660168379,-2.7013336016657328,-0.3289122310099779
14863192,1962,1,202801,227998,0.6,-0.84,9.95,-0.03,-0.01,-0.0,32.81,12.944705,-111.77801801982342,-518.074676879179,10.003404420496054,0.03162277660168379,-1.9815781395902157,-1.2953345041984923
14903189,1954,1,202447,227586,0.63,-0.85,9.94,-0.03,-0.01,-0.0,32.81,12.984702,-99.42531575954084,-757.521758283968,9.99614925858953,0.03162277660168379,-1.7626145917863685,-1.8947427905024845
14943192,1975,1,202534,228276,0.62,-0.86,9.96,-0.03,-0.01,-0.0,32.81,13.024705,-106.43361602537584,-771.7627846126467,10.016266769610322,0.03162277660168379,-1.8868434655944848,-1.9303923759424206
14983189,1982,1,202810,229129,0.62,-0.85,9.96,-0.03,-0.01,-0.0,32.81,13.064702,-74.51177896008828,-622.1539375785079,10.015413121783844,0.03162277660168379,-1.3209981510267057,-1.555876294599799
15023202,2004,1,203002,229743,0.62,-0.85,9.96,-0.03,-0.01,-0.0,32.81,13.104715,-83.51864160075989,-456.276328878344,10.015413121783844,0.03162277660168379,-1.4806534682866772,-1.1406345944970353
15063193,1974,1,203056,229527,0.6,-0.84,9.95,-0.03,-0.01,-0.0,32.81,13.144706,-88.57280400701892,-388.78871950613245,10.003404420496054,0.03162277660168379,-1.5702433659732413,-0.971692747124234
15103192,2040,1,202929,228708,0.63,-0.86,9.93,-0.03,-0.01,-0.0,32.81,13.184705,-49.45713161834934,-420.61456805274025,9.987061629928995,0.03162277660168379,-0.876880389963153,-1.0513624479431936
15143193,2027,1,202687,228164,0.63,-0.87,9.96,-0.03,-0.01,-0.0,32.81,13.224706,-46.91984977612399,-462.2439593241928,10.017754239349257,0.03162277660168379,-0.8319046249648931,-1.1555733739461558
15183192,2015,1,202759,228843,0.61,-0.86,9.97,-0.03,-0.01,-0.0,32.81,13.264705,-69.30954101756171,-429.2002307999487,10.025597239067606,0.03162277660168379,-1.2287834718080597,-1.0728549521069353
15223192,2041,1,203115,229755,0.64,-0.85,9.96,-0.03,-0.01,-0.0,32.81,13.304705,-48.81925731591618,-313.34252788937215,10.016671103715046,0.03162277660168379,-0.8655734534426518,-0.7828281672769873
15263192,2069,1,203404,230268,0.63,-0.85,9.96,-0.03,-0.01,-0.0,32.81,13.344705,-5.788300362501326,-165.32033233829026,10.016037140506219,0.03162277660168379,-0.10280828664919596,-0.41228395329161743
15303879,2083,1,203395,230082,0.59,-0.84,9.95,-0.03,-0.01,-0.0,32.77,13.385392,-19.985922294187738,-19.560831460073665,10.0028096053059,0.03162277660168379,-0.35447481297156275,-0.0474039467308455
15344193,2069,1,203424,229740,0.61,-0.87,9.97,-0.03,-0.01,-0.0,32.77,13.425706,0.22477945112895772,146.54595174842265,10.026459993437365,0.03162277660168379,0.0037793458766497163,0.36841144630857126
15384193,2217,1,203576,230030,0.62,-0.87,9.96,-0.03,-0.01,-0.0,32.77,13.465706,112.41271338602546,368.43179880478965,10.017130327593827,0.03162277660168379,1.9924185535221033,0.9238586647874125
15424196,2217,1,203907,231161,0.63,-0.86,9.96,-0.03,-0.01,-0.0,32.77,13.505709,145.9276902712974,613.1854919353382,10.0168907351533,0.03162277660168379,2.5865038061844787,1.536551001253791
15464193,2217,1,204151,231922,0.62,-0.85,9.96,-0.03,-0.01,-0.0,32.77,13.545706,123.46235407211178,759.4134571000287,10.015413121783844,0.03162277660168379,2.1882840795910403,1.9026037152599935
15504193,2217,1,204411,231676,0.62,-0.84,9.97,-0.03,-0.01,-0.0,32.77,13.585706,140.21034568153786,679.9684490492841,10.024514950859219,0.03162277660168379,2.485158365404605,1.7037288914294981
15544190,2217,1,203922,229350,0.62,-0.85,9.98,-0.03,-0.01,-0.0,32.77,13.625703,139.42648547487056,360.5314349154042,10.035302686017996,0.03162277660168379,2.4712636880929058,0.904081670420507
15584193,2217,1,203166,227373,0.64,-0.87,9.96,-0.03,-0.01,-0.0,32.77,13.665706,140.28622536622595,-62.17963493633499,10.018388093900137,0.03162277660168379,2.486503405916021,-0.15409166998960772
15624229,2217,1,202865,227287,0.62,-0.85,9.94,-0.03,-0.01,-0.0,32.77,13.705742,152.97407220670132,-390.05239906844315,9.995523998270425,0.03162277660168379,2.711407714272496,-0.9748561183227392
15664193,2217,1,203061,228003,0.61,-0.85,9.97,-0.03,-0.01,-0.0,32.77,13.745706,150.55619282760378,-505.5275947347304,10.024744385768647,0.03162277660168379,2.6685484729620974,-1.263925372117215
15704193,2217,1,203155,228588,0.61,-0.85,9.96,-0.03,-0.01,-0.0,32.77,13.785706,162.81024747009624,-439.7412566939643,10.014799049406834,0.03162277660168379,2.8857633967063188,-1.099242320163164
15744193,2217,1,203410,228938,0.62,-0.85,9.96,-0.03,-0.01,-0.0,32.77,13.825706,169.24778524260344,-314.78927032312276,10.015413121783844,0.03162277660168379,2.999874955463925,-0.7864498000730528
15784193,2179,1,203428,228947,0.59,-0.85,9.93,-0.03,-0.01,-0.0,32.77,13.865706,134.03223433427152,-226.9865545901668,9.983761816069132,0.03162277660168379,2.375645389958397,-0.5666531123808923
15824208,2119,1,203259,228927,0.62,-0.85,9.95,-0.03,-0.01,-0.0,32.77,13.905721,93.13858746121865,-182.0716271815767,10.005468504772777,0.03162277660168379,1.6507661033628083,-0.4542174981754366
15864190,2090,1,203327,229523,0.61,-0.83,9.93,-0.03,-0.01,-0.0,32.77,13.945703,58.46649889488089,-128.05632110608417,9.983281023791728,0.03162277660168379,1.036169931425216,-0.31900089056867104
15904193,2032,1,203666,230322,0.63,-0.86,9.93,-0.03,-0.01,-0.0,32.77,13.985706,25.26408047326805,-32.07795676377656,9.987061629928995,0.03162277660168379,0.4476250786410893,-0.07873808780171192
15944193,2025,1,203927,230718,0.61,-0.86,9.94,-0.03,-0.01,-0.0,32.77,14.025706,14.53388146304404,84.7831146464592,9.99576410285877,0.03162277660168379,0.2574219640177931,0.21380043110068192
15984193,2001,1,204066,230629,0.62,-0.86,9.94,-0.03,-0.01,-0.0,32.77,14.065706,7.686387216103486,181.6777754671573,9.996379344542703,0.03162277660168379,0.13604353181050396,0.4563570004010903
16024218,1962,1,203848,230412,0.62,-0.86,9.97,-0.03,-0.01,-0.0,32.77,14.105731,-21.249763340372333,250.14254518790472,10.026210650091091,0.03162277660168379,-0.3768776130635302,0.6277449749370368
16064193,1922,1,203970,230851,0.61,-0.86,9.93,-0.03,-0.01,-0.0,32.77,14.145706,-61.187486467985444,321.70075539481905,9.98581994630386,0.03162277660168379,-1.0848122303615817,0.8068767643055479
16104190,1872,1,204241,231610,0.63,-0.85,9.96,-0.03,-0.01,-0.0,32.77,14.185703,-84.30959777379219,426.1527725138803,10.016037140506219,0.03162277660168379,-1.4946739284382478,1.0683516764866223
16144193,1871,1,204486,232080,0.62,-0.85,9.95,-0.03,-0.01,-0.0,32.77,14.225706,-99.81975025243955,549.3144881245502,10.005468504772777,0.03162277660168379,-1.7696063231599164,1.376662608736619
16184193,1825,1,204511,232102,0.61,-0.85,9.96,-0.03,-0.01,-0.0,32.77,14.265706,-111.66161163274997,632.3208407638097,10.014799049406834,0.03162277660168379,-1.9795147242367521,1.5844525525352335
16224193,1846,1,204401,231899,0.61,-0.87,9.94,-0.03,-0.01,-0.0,32.77,14.305706,-106.95693842000817,608.7816795527857,9.996629431963555,0.03162277660168379,-1.896119859193182,1.525526930223384
16264188,1809,1,204344,231262,0.61,-0.86,9.95,-0.03,-0.01,-0.0,32.77,14.345701,-117.28797495750025,446.84566164307444,10.005708370725182,0.03162277660168379,-2.0792474344455862,1.1201522210530457
16304876,1809,1,204128,229864,0.64,-0.84,9.92,-0.03,-0.01,-0.0,32.83,14.386389,-123.76058011267472,170.2135558711483,9.976051323043603,0.03162277660168379,-2.193980596343884,0.4276585999798314
16343190,1809,1,203728,229015,0.6,-0.84,9.96,-0.03,-0.01,-0.0,32.83,14.424703,-111.68888067388279,-147.6241093370005,10.013351087423231,0.03162277660168379,-1.9799980942610464,-0.3679849681420568
16383193,1809,1,203592,228866,0.61,-0.86,9.93,-0.03,-0.01,-0.0,32.83,14.464706,-108.46612051511258,-410.1604716887651,9.98581994630386,0.03162277660168379,-1.9228715657318083,-1.0251926907274274
16423193,1809,1,203526,228429,0.63,-0.84,9.97,-0.03,-0.01,-0.0,32.83,14.504706,-105.46888138156213,-536.6847729132685,10.025138403034644,0.03162277660168379,-1.8697426146351013,-1.3419211892660312
16463192,1809,1,203400,228243,0.61,-0.84,9.93,-0.03,-0.01,-0.0,32.83,14.544705,-101.96449857102874,-500.438507869379,9.984117387130421,0.03162277660168379,-1.8076240532961467,-1.2511858523080108
16503192,1809,1,203567,229129,0.61,-0.85,9.95,-0.03,-0.01,-0.0,32.83,14.584705,-99.07118409106204,-347.1442761838657,10.00485382202059,0.03162277660168379,-1.7563372668022528,-0.8674441412968572
16543192,1809,1,203851,230083,0.61,-0.85,9.96,-0.03,-0.01,-0.0,32.83,14.624705,-100.81101062681921,-174.9887645599353,10.014799049406834,0.03162277660168379,-1.7871773682477121,-0.4364869561230675
16583192,1828,1,204103,230196,0.6,-0.87,9.96,-0.03,-0.01,-0.0,32.83,14.664705,-79.60235385677832,-76.82339901057641,10.01591233987199,0.03162277660168379,-1.4112334951849121,-0.19074942951327617
16623193,1857,1,204044,229674,0.61,-0.84,9.95,-0.03,-0.01,-0.0,32.83,14.704706,-50.67793158508816,-79.85457353195572,10.004009196317243,0.03162277660168379,-0.8985202454573983,-0.1983373738502413
16663193,1872,1,203897,229038,0.62,-0.87,9.96,-0.03,-0.01,-0.0,32.83,14.744706,-45.02367582506206,-132.982003252838,10.017130327593827,0.03162277660168379,-0.7982931149625253,-0.331331359067774
16703193,1889,1,203732,229042,0.6,-0.88,9.97,-0.03,-0.01,-0.0,32.83,14.784706,-15.535117168112444,-157.70444092385563,10.026729277286787,0.03162277660168379,-0.2755800043334162,-0.39321907935529116
16743190,1915,1,203894,229945,0.61,-0.87,9.96,-0.03,-0.01,-0.0,32.83,14.824703,-15.50506852517421,-117.91596613226983,10.016516360491806,0.03162277660168379,-0.27504736318933204,-0.2936165227087308
16783193,1883,1,204198,230756,0.59,-0.85,9.97,-0.03,-0.01,-0.0,32.83,14.864706,-26.705890488380323,-40.93732889435573,10.02354727628897,0.03162277660168379,-0.4735927230389394,-0.1009157691305669
16823193,1954,1,204339,231006,0.6,-0.86,9.97,-0.03,-0.01,-0.0,32.83,14.904706,17.727559382715647,29.431259707461884,10.024993765584096,0.03162277660168379,0.3140329818420103,0.07523803844974361
16863193,1983,1,204227,230513,0.62,-0.85,9.97,-0.03,-0.01,-0.0,32.83,14.944706,51.65883894396047,92.63789962928023,10.02535784897477,0.03162277660168379,0.915497600490106,0.23346332771323142
16903190,2003,1,204213,230411,0.61,-0.86,9.97,-0.03,-0.01,-0.0,32.83,14.984703,72.02750944170558,191.48915859338354,10.025597239067606,0.03162277660168379,1.2765519076576937,0.4809178524752119
16943192,2032,1,204300,231287,0.63,-0.85,9.95,-0.03,-0.01,-0.0,32.83,15.024705,68.51971428613841,346.0692767512456,10.006093143680005,0.03162277660168379,1.2143728592156595,0.8678785252805544
16983193,2005,1,204677,232234,0.62,-0.85,9.95,-0.03,-0.01,-0.0,32.83,15.064706,78.74908384996644,494.82456173874675,10.005468504772777,0.03162277660168379,1.3956982894168113,1.2402578832994773
17023203,2097,1,204884,232709,0.62,-0.85,9.97,-0.03,-0.01,-0.0,32.83,15.104716,107.99378534256898,518.7976046951252,10.02535784897477,0.03162277660168379,1.9140887968828455,1.30026964252273
17063193,2009,1,204778,231268,0.61,-0.85,9.97,-0.03,-0.01,-0.0,32.83,15.144706,72.04063832776428,340.2421839554454,10.024744385768647,0.03162277660168379,1.2767846298110779,0.8532915539699278
17103193,2062,1,204129,229012,0.61,-0.83,9.95,-0.03,-0.01,-0.0,32.83,15.184706,65.32409025039506,3.089399811265463,10.003174496128715,0.03162277660168379,1.1577273446092382,0.009296415750461185
17143190,2054,1,203621,228427,0.61,-0.87,9.95,-0.03,-0.01,-0.0,32.83,15.224703,89.14815726404314,-346.63836654232114,10.00657283988879,0.03162277660168379,1.58003188385146,-0.8661776968303646
17183193,2043,1,203667,228934,0.64,-0.84,9.98,-0.03,-0.01,-0.0,32.83,15.264706,51.55894618246431,-564.6897963217859,10.035716217590053,0.03162277660168379,0.9137269050587549,-1.4120262120156086
17223193,2033,1,203879,229359,0.61,-0.87,9.96,-0.03,-0.01,-0.0,32.83,15.304706,35.629888913601576,-600.8390584936352,10.016516360491806,0.03162277660168379,0.6313690193696154,-1.5025187215189988
17263199,2055,1,203879,229663,0.61,-0.84,9.96,-0.03,-0.01,-0.0,32.83,15.344712,67.54849047021163,-504.77995923054544,10.013955262532383,0.03162277660168379,1.197156981429089,-1.2620538148874738
17303190,2071,1,203989,229723,0.62,-0.86,9.98,-0.03,-0.01,-0.0,32.83,15.384703,51.48777855706684,-361.0634260689557,10.036154642092757,0.03162277660168379,0.9124653903377282,-0.9022879728878793
17343879,2014,1,204038,230226,0.61,-0.85,9.94,-0.03,-0.01,-0.0,32.77,15.425392,18.50360960166258,-225.86759990724858,9.994908703935218,0.03162277660168379,0.32778921959744733,-0.5638520312192222
17382192,2064,1,204184,230899,0.64,-0.86,9.98,-0.03,-0.01,-0.0,32.77,15.463705,39.40809172577391,-113.80820673406525,10.037410024503332,0.03162277660168379,0.6983413040279847,-0.283333561617781
17422192,2064,1,204467,231269,0.61,-0.84,9.95,-0.03,-0.01,-0.0,32.77,15.503705,48.86500018812026,-21.945372676785254,10.004009196317243,0.03162277660168379,0.8659741170384241,-0.05337317281597808
17462213,2058,1,204574,231563,0.63,-0.85,9.93,-0.03,-0.01,-0.0,32.77,15.543726,39.22907257122973,49.50837195920783,9.986205485568581,0.03162277660168379,0.6951680170517517,0.12549710771109582
17502192,2063,1,204624,231195,0.6,-0.85,9.94,-0.03,-0.01,-0.0,32.77,15.583705,28.425841569754162,98.54302992571198,9.994303377424561,0.03162277660168379,0.5036703400265883,0.24824565043197117
17542189,2039,1,204535,231249,0.61,-0.85,9.93,-0.03,-0.01,-0.0,32.77,15.623702,23.26415734585457,131.82588152794298,9.984963695477315,0.03162277660168379,0.41217451453889886,0.33156266947918833
17582192,2073,1,204645,231860,0.62,-0.88,9.990000000000002,-0.03,-0.01,-0.0,32.77,15.663705,31.71688461126668,166.83311405687988,10.047830611629559,0.03162277660168379,0.5620072484342115,0.41919633423429264
17622189,2018,1,204949,232432,0.62,-0.85,9.97,-0.03,-0.01,-0.0,32.77,15.703702,-5.048469730486622,224.44477402666817,10.02535784897477,0.03162277660168379,-0.08969407596504754,0.5634157006639077
17662192,2001,1,204993,232677,0.58,-0.85,9.97,-0.03,-0.01,-0.0,32.77,15.743705,-33.69866787399035,318.4653561861948,10.022963633576648,0.03162277660168379,-0.5975464388407687,0.7987775839615107
17702192,1989,1,205079,232673,0.6,-0.85,9.97,-0.03,-0.01,-0.0,32.77,15.783705,-45.57469944779728,442.1128196250063,10.02414086094165,0.03162277660168379,-0.8080605395159179,1.1083044895762024
17742192,1958,1,205131,232664,0.6,-0.85,9.93,-0.03,-0.01,-0.0,32.77,15.823705,-67.79250988475762,553.0898347585896,9.984357766025814,0.03162277660168379,-1.2018926335146678,1.386113440389428
17782189,1997,1,205215,233176,0.61,-0.85,9.92,-0.03,-0.01,-0.0,32.77,15.863702,-41.93948587880845,574.8765580052201,9.975018796974771,0.03162277660168379,-0.7436228769447268,1.4406521817632074
17822192,1988,1,205333,233248,0.61,-0.84,9.97,-0.03,-0.01,-0.0,32.77,15.903705,-35.47078524828857,434.37102241451464,10.023901436067694,0.03162277660168379,-0.628958926507439,1.0889244354463758
17862192,1977,1,205131,231577,0.59,-0.86,9.97,-0.03,-0.01,-0.0,32.77,15.943705,-56.15675142049601,123.55484779133776,10.024400231435296,0.03162277660168379,-0.9956376051784565,0.31085777665303643
17902193,1977,1,204460,230035,0.59,-0.87,9.97,-0.03,-0.01,-0.0,32.77,15.983706,-48.80834028111366,-266.44624665709046,10.025263088817171,0.03162277660168379,-0.8653799384836177,-0.6654326266733763
17942189,1986,1,204219,229394,0.59,-0.85,9.93,-0.03,-0.01,-0.0,32.77,16.023702,-37.67614777627406,-583.5379914278986,9.983761816069132,0.03162277660168379,-0.6680511018992157,-1.4592089308952731
17982192,2006,1,204147,229572,0.62,-0.88,9.96,-0.03,-0.01,-0.0,32.77,16.063705,-20.009331089683414,-708.384788390381,10.018003793171573,0.03162277660168379,-0.35488975642308823,-1.7717381301604573
18022189,2003,1,204336,230332,0.63,-0.88,9.94,-0.03,-0.01,-0.0,32.77,16.103702,-13.660115966673798,-630.6388141966171,9.998744921238865,0.03162277660168379,-0.242343801715343,-1.5771165006750774
18062192,2014,1,204611,231291,0.63,-0.88,9.96,-0.03,-0.01,-0.0,32.77,16.143705,-7.5328633149147395,-444.73459624593573,10.018627650531784,0.03162277660168379,-0.13373234564281541,-1.1117421555598683
18102192,2026,1,204844,231693,0.6,-0.86,9.96,-0.03,-0.01,-0.0,32.77,16.183705,13.447299749750592,-271.482085050886,10.015048676866229,0.03162277660168379,0.23816125636789678,-0.6780388494931315
18142193,2022,1,204888,231587,0.62,-0.86,9.97,-0.03,-0.01,-0.0,32.77,16.223706,7.331127252056499,-173.5875172403428,10.026210650091091,0.03162277660168379,0.1297462067004745,-0.43297921132368483
18182192,1997,1,204843,231646,0.63,-0.85,9.95,-0.03,-0.01,-0.0,32.77,16.263705,-12.226908889383198,-132.0439891090741,10.006093143680005,0.03162277660168379,-0.21693882555962749,-0.32898322666564234
18222193,1989,1,204950,232183,0.63,-0.86,9.97,-0.03,-0.01,-0.0,32.77,16.303706,-18.84399523067828,-91.00928764429783,10.026833996830705,0.03162277660168379,-0.334233055670959,-0.22626098866760785
18262192,1996,1,205091,232924,0.62,-0.84,9.95,-0.03,-0.01,-0.0,32.77,16.343705,-9.830209377586757,-18.522859686379487,10.004623930963122,0.03162277660168379,-0.17445501780121947,-0.044805590223629795
18302193,2005,1,205340,233437,0.61,-0.86,9.97,-0.03,-0.01,-0.0,32.77,16.383706,3.0677820441851607,75.19657059692794,10.025597239067606,0.03162277660168379,0.0541743057060209,0.18980241906981846
18342192,1997,1,205457,233475,0.62,-0.88,9.96,-0.03,-0.01,-0.0,32.77,16.423705,-5.202397035692375,169.4366135586334,10.018003793171573,0.03162277660168379,-0.09242258573898636,0.4257136789669321
18382879,1990,1,205437,233608,0.6,-0.87,9.94,-0.03,-0.01,-0.0,32.91,16.464392,-8.015100134129257,268.83779448463434,9.996024209654555,0.03162277660168379,-0.14228045783656287,0.6745448243118328
18423190,2000,1,205527,233960,0.62,-0.85,9.94,-0.03,-0.01,-0.0,32.91,16.504703,2.673193641500877,396.5108041719715,9.995523998270425,0.03162277660168379,0.047179846133251484,0.994148886699996
18463193,2000,1,205688,234516,0.61,-0.85,9.95,-0.03,-0.01,-0.0,32.91,16.544706,2.4421159113174387,548.7848427930265,10.00485382202059,0.03162277660168379,0.043083770752068595,1.375336746677015
18502190,2000,1,205906,235047,0.6,-0.84,9.93,-0.03,-0.01,-0.0,32.91,16.583703,9.228761649469389,664.1223430662591,9.983511406313912,0.03162277660168379,0.16338360452136527,1.6640613073597659
18542192,2026,1,205977,235207,0.61,-0.86,9.95,-0.03,-0.01,-0.0,32.91,16.623705,26.024838164625226,650.8552280288393,10.005708370725182,0.03162277660168379,0.461110241612614,1.6308497157123654
18582189,2015,1,205856,234022,0.61,-0.85,9.94,-0.03,-0.01,-0.0,32.91,16.663702,30.134829507653997,459.70799337772854,9.994908703935218,0.03162277660168379,0.5339637976160022,1.152350517969887
18622192,2018,1,205364,231885,0.61,-0.84,9.95,-0.03,-0.01,-0.0,32.91,16.703705,16.152135870659315,136.73076844730465,10.004009196317243,0.03162277660168379,0.2861070823728232,0.34384108125017704
18662192,2000,1,204864,231079,0.61,-0.86,9.95,-0.03,-0.01,-0.0,32.91,16.743705,16.46768878396572,-196.02112844329432,10.005708370725182,0.03162277660168379,0.2917005617558379,-0.489137308419214
18702193,2031,1,204774,231302,0.62,-0.86,9.96,-0.03,-0.01,-0.0,32.91,16.783706,31.169002414799063,-418.97119523140293,10.016266769610322,0.03162277660168379,0.5522955086877724,-1.0472485899633124
18742190,2003,1,204859,231443,0.62,-0.85,9.95,-0.03,-0.01,-0.0,32.91,16.823703,14.571013847451374,-485.4586144851906,10.005468504772777,0.03162277660168379,0.25808017130369104,-1.2136866597108222
18782192,1994,1,204886,231477,0.62,-0.87,9.92,-0.03,-0.01,-0.0,32.91,16.863705,-0.33650887472066565,-429.7252228867417,9.977359370093874,0.03162277660168379,-0.006170030428167318,-1.0741691656910874
18822192,1995,1,204930,231389,0.6,-0.85,9.96,-0.03,-0.01,-0.0,32.91,16.903705,-1.716796175740526,-320.68908786934907,10.014194925204922,0.03162277660168379,-0.030636952568083884,-0.8012188233751635
18862192,1965,1,204849,231297,0.63,-0.86,9.95,-0.03,-0.01,-0.0,32.91,16.943705,-24.35034074599561,-213.2212678243932,10.006947586552053,0.03162277660168379,-0.4318383345858661,-0.5321944465982559
18902192,1977,1,204988,231740,0.62,-0.87,9.95,-0.03,-0.01,-0.0,32.91,16.983705,-26.783332274402625,-133.0600796867784,10.007187417051805,0.03162277660168379,-0.4749654533013882,-0.3315268079377054
18942192,1969,1,205095,231950,0.62,-0.85,9.96,-0.03,-0.01,-0.0,32.91,17.023705,-19.264837641825533,-86.60104262254893,10.015413121783844,0.03162277660168379,-0.34169289283609594,-0.21522582140395807
18982189,1954,1,205138,231943,0.6,-0.85,9.95,-0.03,-0.01,-0.0,32.91,17.063702,-53.13306478306587,-67.51718634606398,10.004249097258624,0.03162277660168379,-0.9420398465967126,-0.16745317151551908
19022193,1918,1,205056,231827,0.62,-0.88,9.97,-0.03,-0.01,-0.0,32.91,17.103706,-73.70345524107307,-52.524809111892104,10.027945951190603,0.03162277660168379,-1.3066698343911909,-0.12992272807542535
19062193,1955,1,205010,231950,0.6,-0.86,9.93,-0.03,-0.01,-0.0,32.91,17.143706,-51.69723277050233,-3.8850040819046083,9.985214068811946,0.03162277660168379,-0.9165883409344966,-0.008162621382381288
19102198,1953,1,205115,232440,0.65,-0.85,9.95,-0.03,-0.01,-0.0,32.91,17.183711,-45.26624518600072,107.3290914978569,10.007372282472556,0.03162277660168379,-0.8025928905695532,0.2702398133151585
19142192,1956,1,205288,232936,0.6,-0.85,9.95,-0.03,-0.01,-0.0,32.91,17.223705,-48.06722667979779,269.1118148694598,10.004249097258624,0.03162277660168379,-0.8522429859326301,0.6752307800074169
19182193,1974,1,205366,232990,0.61,-0.85,9.96,-0.03,-0.01,-0.0,32.91,17.263706,-31.139224587018926,416.06965719832596,10.014799049406834,0.03162277660168379,-0.5521778408846821,1.0431105967605987
19222193,1983,1,205300,232820,0.62,-0.86,9.93,-0.03,-0.01,-0.0,32.91,17.303706,-18.692999728045915,454.93141683644626,9.986435800624765,0.03162277660168379,-0.33155651492204824,1.1403933057866669
19262193,2001,1,205270,232287,0.61,-0.85,9.99,-0.03,-0.01,-0.0,32.91,17.343706,-8.485117845998955,319.0749515405019,10.044635384124204,0.03162277660168379,-0.15061197458108458,0.8003035850491848
19302190,1985,1,204914,230559,0.61,-0.85,9.97,-0.03,-0.01,-0.0,32.91,17.383703,-16.336297946939045,19.24698280896208,10.024744385768647,0.03162277660168379,-0.2897817054727836,0.049743720761004334
19342193,1968,1,204371,229299,0.63,-0.85,9.97,-0.03,-0.01,-0.0,32.91,17.423706,-41.46434006672885,-346.473404632772,10.025981248735707,0.03162277660168379,-0.7352004596837195,-0.8657647474015047
19382876,2017,1,204083,228802,0.61,-0.85,9.96,-0.03,-0.01,-0.0,32.89,17.464389,12.989186313536868,-637.6658372238875,10.014799049406834,0.03162277660168379,0.23004075437761617,-1.5947072593758456
19421192,2112,1,203944,228620,0.61,-0.85,9.95,-0.03,-0.01,-0.0,32.89,17.502705,107.97798225975811,-747.1509686298436,10.00485382202059,0.03162277660168379,1.9138086720157845,-1.8687815751152357
19461192,2142,1,203944,228925,0.62,-0.86,9.95,-0.03,-0.01,-0.0,32.89,17.542705,132.63132200823756,-657.6971939952849,10.006323000982928,0.03162277660168379,2.350812869380546,-1.6448517888653875
19501192,2123,1,204154,229856,0.63,-0.87,9.97,-0.03,-0.01,-0.0,32.89,17.582705,127.96715668556492,-441.57162750916063,10.02769664479336,0.03162277660168379,2.2681360457125956,-1.1038242905392528
19542193,2096,1,204425,230592,0.62,-0.85,9.95,-0.03,-0.01,-0.0,32.89,17.623706,83.01037936839779,-205.28871148174727,10.005468504772777,0.03162277660168379,1.4712338576913289,-0.5123368648083274
19582193,2005,1,204534,230689,0.61,-0.86,9.990000000000002,-0.03,-0.01,-0.0,32.89,17.663706,16.568608050642418,-21.54248069432922,10.045486548694395,0.03162277660168379,0.2934894529804198,-0.05236461263076816
19622190,2032,1,204511,230490,0.61,-0.88,9.97,-0.03,-0.01,-0.0,32.89,17.703703,23.087355884525156,101.75041779543834,10.027332646322252,0.03162277660168379,0.4090405383113598,0.25627470994368357
19662193,2023,1,204503,230611,0.62,-0.88,9.97,-0.03,-0.01,-0.0,32.89,17.743706,35.013689670621815,197.99017964847744,10.027945951190603,0.03162277660168379,0.6204462941590584,0.49719186954402916
19702190,2015,1,204581,231104,0.62,-0.86,9.96,-0.03,-0.01,-0.0,32.89,17.783703,17.821944264648554,294.66401082494315,10.016266769610322,0.03162277660168379,0.31570604480196895,0.7391956356202852
19742193,2000,1,204763,231591,0.61,-0.85,9.97,-0.03,-0.01,-0.0,32.89,17.823706,9.901377852590592,391.5136486188714,10.024744385768647,0.03162277660168379,0.17530637470091645,0.9816394987011733
19782193,1995,1,204919,231842,0.6,-0.87,9.95,-0.03,-0.01,-0.0,32.89,17.863706,10.952598554988494,480.84746272042133,10.005968219018087,0.03162277660168379,0.19394027436690187,1.2052689875446256
19822193,2017,1,204884,231470,0.63,-0.85,9.97,-0.03,-0.01,-0.0,32.89,17.903706,28.346830348075887,574.8943797448802,10.025981248735707,0.03162277660168379,0.5022697900051879,1.4406967949544227
19862190,1985,1,204756,231130,0.61,-0.86,9.98,-0.03,-0.01,-0.0,32.89,17.943703,10.554303746296242,692.9222898847348,10.035541838884436,0.03162277660168379,0.1868801151769956,1.736156263234068
19902192,1957,1,204718,231403,0.64,-0.88,9.97,-0.03,-0.01,-0.0,32.89,17.983705,-24.846102997180438,810.2630868159553,10.029202361105295,0.03162277660168379,-0.44062619809130193,2.029895679849404
19942190,1955,1,204919,231992,0.61,-0.86,9.96,-0.03,-0.01,-0.0,32.89,18.023703,-13.430973342707214,831.621179752894,10.015652749571544,0.03162277660168379,-0.2382820279560799,2.08336143023961
19982193,1953,1,205021,231608,0.61,-0.85,9.95,-0.03,-0.01,-0.0,32.89,18.063706,-18.714713122904087,644.7281000919689,10.00485382202059,0.03162277660168379,-0.3319414057639734,1.6155116659225828
20022193,1933,1,204508,228910,0.61,-0.85,9.96,-0.03,-0.01,-0.0,32.89,18.103706,-31.20189182007462,226.58281657154006,10.014799049406834,0.03162277660168379,-0.5532886779624158,0.5687678662044021
20062193,1957,1,203592,226400,0.59,-0.86,9.95,-0.03,-0.01,-0.0,32.89,18.143706,-3.917820502201797,-299.7164626110724,10.00450898345341,0.03162277660168379,-0.0696522291585445,-0.748718014880832
20102193,1952,1,202968,225679,0.64,-0.88,9.96,-0.03,-0.01,-0.0,32.89,18.183706,-7.657650941239438,-729.0478920416151,10.019261449827528,0.03162277660168379,-0.13594432653625368,-1.8234641126892228
20142193,1943,1,203029,226360,0.61,-0.86,9.94,-0.03,-0.01,-0.0,32.89,18.223706,-9.673858173297864,-913.552644302423,9.99576410285877,0.03162277660168379,-0.1716835420809169,-2.2853351729617564
20182193,1962,1,203346,227065,0.58,-0.86,9.97,-0.03,-0.01,-0.0,32.89,18.263706,9.349512690075885,-853.3710229413257,10.023816638386798,0.03162277660168379,0.1655240330442171,-2.134682417808443
20222193,1941,1,203477,227296,0.62,-0.84,9.97,-0.03,-0.01,-0.0,32.89,18.303706,-7.30212687163348,-664.651978788043,10.024514950859219,0.03162277660168379,-0.1296423199007597,-1.6622617134707864
20262193,1948,1,203486,226968,0.62,-0.86,9.96,-0.03,-0.01,-0.0,32.89,18.343706,2.335563418186491,-471.50478218755364,10.016266769610322,0.03162277660168379,0.04119502516169575,-1.1787560075774586
20302192,1937,1,203462,226942,0.63,-0.85,9.92,-0.03,-0.01,-0.0,32.89,18.383705,-5.630441319689808,-328.42206842232264,9.976261824952271,0.03162277660168379,-0.1000100830384713,-0.8205768067512235
20342192,1921,1,203582,227718,0.6,-0.86,9.99,-0.03,-0.01,-0.0,32.89,18.423705,-25.48725598081408,-225.84894009702285,10.044884270114812,0.03162277660168379,-0.45199125239466964,-0.5638053200845342
20382193,1940,1,203926,228574,0.62,-0.83,9.97,-0.03,-0.01,-0.0,32.89,18.463706,10.280783843422993,-139.56060804828823,10.02368195824269,0.03162277660168379,0.18203171139730956,-0.3477995916458353
20422876,1950,1,204100,228844,0.6,-0.87,9.93,-0.03,-0.01,-0.0,32.71,18.504389,-6.790644908370822,-56.9162964434947,9.986080312114458,0.03162277660168379,-0.12057580935482295,-0.1409159457848184
20461193,1920,1,204037,228595,0.59,-0.86,9.99,-0.03,-0.01,-0.0,32.71,18.542706,4.715096328779978,36.249538224564446,10.04429191132954,0.03162277660168379,0.08337453837596838,0.09230624666302624
20501190,1994,1,204027,228996,0.62,-0.86,9.95,-0.03,-0.01,-0.0,32.71,18.582703,28.836095352600037,169.75876043331826,10.006323000982928,0.03162277660168379,0.5109424835543014,0.42652010978646915
20542238,1881,1,204372,230345,0.62,-0.86,9.96,-0.03,-0.01,-0.0,32.71,18.623751,-32.14161199157144,370.68846464956516,10.016266769610322,0.03162277660168379,-0.5699461233017543,0.9295077802363954
20582193,1973,1,204789,231390,0.59,-0.85,9.96,-0.03,-0.01,-0.0,32.71,18.663706,11.682406709918421,624.9183504308684,10.013600750978641,0.03162277660168379,0.2068768269893546,1.5659218858893151
20622193,1969,1,204955,231796,0.6,-0.84,9.97,-0.03,-0.01,-0.0,32.71,18.703706,43.0812658704625,857.5437153252304,10.023297860484842,0.03162277660168379,0.763451854373588,2.1482533576454865
20662190,1884,1,204955,231727,0.62,-0.85,9.99,-0.03,-0.01,-0.0,32.71,18.743703,-67.4178363605329,955.061313559602,10.045247632587262,0.03162277660168379,-1.1952511843480191,2.3923693272334825
20702193,1814,1,204973,231381,0.61,-0.85,9.97,-0.03,-0.01,-0.0,32.71,18.783706,-127.16432933246622,820.9754496566469,10.024744385768647,0.03162277660168379,-2.2543153303394132,2.0567119559757794
20742206,1815,1,204730,229786,0.61,-0.86,9.94,-0.03,-0.01,-0.0,32.71,18.823719,-133.8578781931458,436.2574980093244,9.99576410285877,0.03162277660168379,-2.372964932268641,1.0936468530127343
20782193,1825,1,204116,227679,0.64,-0.84,9.95,-0.03,-0.01,-0.0,32.71,18.863706,-123.68789011075643,-110.47507068726979,10.005883269357083,0.03162277660168379,-2.192692096032412,-0.27498971648044884
20822190,1866,1,203555,226614,0.61,-0.85,9.96,-0.03,-0.01,-0.0,32.71,18.903703,-91.25963251330266,-649.2065419229149,10.014799049406834,0.03162277660168379,-1.6178699896609188,-1.6235971250856311
20862193,1870,1,203284,226135,0.62,-0.85,9.96,-0.03,-0.01,-0.0,32.71,18.943706,-80.37044638316095,-1006.647523022302,10.015413121783844,0.03162277660168379,-1.4248486751734335,-2.518379741263789
20902193,1913,1,203227,226336,0.61,-0.85,9.96,-0.03,-0.01,-0.0,32.71,18.983706,-57.02468025234795,-1093.3505642714686,10.014799049406834,0.03162277660168379,-1.0110224798608647,-2.7354236119495643
20942193,1946,1,203408,227380,0.62,-0.85,9.94,-0.03,-0.01,-0.0,32.71,19.023706,-7.710308447123451,-943.921599514384,9.995523998270425,0.03162277660168379,-0.13687773155678412,-2.3613578302171647
20982190,1997,1,203772,228792,0.6,-0.85,9.94,-0.03,-0.01,-0.0,32.71,19.063703,17.51268171281787,-683.1669222312556,9.994303377424561,0.03162277660168379,0.3102240681360658,-1.7086102028956798
21022193,1982,1,204112,229534,0.61,-0.85,9.96,-0.03,-0.01,-0.0,32.71,19.103706,18.41771544313773,-442.2875159819941,10.014799049406834,0.03162277660168379,0.3262666628896168,-1.1056163753713935
21062193,2018,1,204269,229618,0.6,-0.86,9.95,-0.03,-0.01,-0.0,32.71,19.143706,35.27183212162469,-284.84863928839025,10.005103697613533,0.03162277660168379,0.6250221177901444,-0.7114993674593011
21102193,2038,1,204277,229652,0.62,-0.85,9.93,-0.03,-0.01,-0.0,32.71,19.183706,58.90071037618353,-193.34524490825336,9.98557960260695,0.03162277660168379,1.0438667482382373,-0.48243876461288343
21142193,2054,1,204328,230070,0.61,-0.85,9.95,-0.03,-0.01,-0.0,32.71,19.223706,71.49938698413541,-116.75082307230362,10.00485382202059,0.03162277660168379,1.2671904283191797,-0.29069981810420614
21182193,2064,1,204572,230829,0.63,-0.85,9.93,-0.03,-0.01,-0.0,32.71,19.263706,69.19214304335394,-27.81100100193246,9.986205485568581,0.03162277660168379,1.2262923067359526,-0.06805661018278795
21222193,2043,1,204824,231446,0.62,-0.86,9.93,-0.03,-0.01,-0.0,32.71,19.303706,58.803745956998014,64.86735484848221,9.986435800624765,0.03162277660168379,1.0421479604954236,0.16394527571139356
21262193,2081,1,204979,231588,0.6,-0.87,9.96,-0.03,-0.01,-0.0,32.71,19.343706,75.81438037472154,153.06595725092706,10.01591233987199,0.03162277660168379,1.343677843108636,0.3847329871768936
21302193,2096,1,204964,231436,0.63,-0.85,9.99,-0.03,-0.01,-0.0,32.71,19.383706,105.02142991028195,261.0316280020222,10.045869798081199,0.03162277660168379,1.8614009333632793,0.6550036344735815
21342193,2096,1,205000,231745,0.61,-0.86,9.95,-0.03,-0.01,-0.0,32.71,19.423706,87.17887297746432,423.8864779406352,10.005708370725182,0.03162277660168379,1.5451244227196477,1.0626784574252781
21382193,2039,1,205197,232650,0.62,-0.87,9.95,-0.03,-0.01,-0.0,32.71,19.463706,37.74225066626785,626.9961115190986,10.007187417051805,0.03162277660168379,0.6688126664245699,1.5711231487568287
21422880,2042,1,205561,233542,0.62,-0.85,9.93,-0.03,-0.01,-0.0,32.53,19.504393,32.95504601199607,777.2758726619595,9.98557960260695,0.03162277660168379,0.5839548520714488,1.9473187305293864
21461192,2067,1,205751,233618,0.61,-0.85,9.96,-0.03,-0.01,-0.0,32.53,19.542705,57.06561149895035,756.9011051049174,10.014799049406834,0.03162277660168379,1.0113378527574648,1.8963145402358206
21501193,2071,1,205435,231663,0.61,-0.85,9.98,-0.03,-0.01,-0.0,32.53,19.582706,59.91656448867101,524.4021378898857,10.034689830782016,0.03162277660168379,1.0618737410268984,1.3142994800053849
21541189,2068,1,204770,229718,0.6,-0.87,9.98,-0.03,-0.01,-0.0,32.53,19.622702,55.428581007131214,167.79447061985252,10.035800914725241,0.03162277660168379,0.9823199102215783,0.421602899754147
21581192,2058,1,204410,229253,0.62,-0.87,9.96,-0.03,-0.01,-0.0,32.53,19.662705,40.74610684896709,-148.56797195827627,10.017130327593827,0.03162277660168379,0.7220589110921153,-0.37034774104789514
21621190,2030,1,204450,229559,0.63,-0.87,9.97,-0.03,-0.01,-0.0,32.53,19.702703,20.374996469831046,-299.9929604543285,10.02769664479336,0.03162277660168379,0.3609613546763612,-0.7494101724023209
21661193,2034,1,204558,229899,0.61,-0.85,9.94,-0.03,-0.01,-0.0,32.53,19.742706,9.315151778717036,-277.5962212592142,9.994908703935218,0.03162277660168379,0.16491495278806145,-0.6933443770667489
21701192,2016,1,204684,230075,0.6,-0.86,9.94,-0.03,-0.01,-0.0,32.53,19.782705,10.154679060635225,-165.8496515094444,9.995158828152757,0.03162277660168379,0.17979638263665249,-0.4136089988734134
21741193,2038,1,204624,229767,0.6,-0.88,9.97,-0.03,-0.01,-0.0,32.53,19.822706,9.375770690351926,-57.901143170759575,10.026729277286787,0.03162277660168379,0.16598948139531697,-0.14338131427291442
21781190,1984,1,204567,229522,0.62,-0.85,9.98,-0.03,-0.01,-0.0,32.53,19.862703,-21.270799908654077,8.308621628968755,10.035302686017996,0.03162277660168379,-0.37725050650235276,0.02236170260731476
21821193,1979,1,204556,229830,0.62,-0.86,9.94,-0.03,-0.01,-0.0,32.53,19.902706,-48.48212654441373,48.897977013563974,9.996379344542703,0.03162277660168379,-0.8595974857356201,0.1239691050050679
21861193,1964,1,204673,230363,0.62,-0.85,9.94,-0.03,-0.01,-0.0,32.53,19.942706,-43.58751853180265,94.09246999850087,9.995523998270425,0.03162277660168379,-0.7728358433866089,0.23710455619347828
21901193,1989,1,204803,230797,0.61,-0.86,9.96,-0.03,-0.01,-0.0,32.53,19.982706,-34.95284076557137,162.21741875351253,10.015652749571544,0.03162277660168379,-0.619777861578364,0.4076418563276871
21941190,1963,1,204873,230811,0.62,-0.85,9.94,-0.03,-0.01,-0.0,32.53,20.022703,-46.632580236047794,265.05777646439867,9.995523998270425,0.03162277660168379,-0.8268124956197773,0.6650822987700102
21981192,1968,1,204837,230745,0.61,-0.88,9.97,-0.03,-0.01,-0.0,32.53,20.062705,-53.412102743384,414.9805235375424,10.027332646322252,0.03162277660168379,-0.9469860632605479,1.0403841666143794
22021199,1981,1,204882,230918,0.61,-0.86,9.97,-0.03,-0.01,-0.0,32.53,20.102712,-28.776288409786577,603.2903876304317,10.025597239067606,0.03162277660168379,-0.5102925207580543,1.5117805698106264
22061193,1986,1,204975,231436,0.62,-0.86,9.95,-0.03,-0.01,-0.0,32.53,20.142706,-34.05391687418827,765.5118102130539,10.006323000982928,0.03162277660168379,-0.6038435696060112,1.9178697329842835
22101193,1941,1,205031,231616,0.62,-0.85,9.94,-0.03,-0.01,-0.0,32.53,20.182706,-68.9306669614054,785.517516187931,9.995523998270425,0.03162277660168379,-1.2220675641662506,1.967950050791251
22141193,1951,1,205026,230942,0.58,-0.86,9.97,-0.03,-0.01,-0.0,32.53,20.222706,-66.39568618227256,564.681123178982,10.023816638386798,0.03162277660168379,-1.177132587728084,1.4151299324149755
22181197,1953,1,204499,228186,0.62,-0.87,9.95,-0.03,-0.01,-0.0,32.53,20.26271,-59.57142273766067,110.58128165575515,10.007187417051805,0.03162277660168379,-1.0561659438719615,0.2783810264710835
22221193,1947,1,203425,225365,0.62,-0.87,9.95,-0.03,-0.01,-0.0,32.53,20.302706,-65.47643726205003,-440.0628346484335,10.007187417051805,0.03162277660168379,-1.1608380150390005,-1.1000473268037572
22261193,1964,1,202814,224932,0.62,-0.86,9.94,-0.03,-0.01,-0.0,32.53,20.342706,-53.116168801291145,-899.7741172531717,9.996379344542703,0.03162277660168379,-0.9417403490426496,-2.2508433627549613
22301193,1971,1,202939,225467,0.61,-0.85,9.95,-0.03,-0.01,-0.0,32.53,20.382706,-36.31725283685714,-1146.7203561041877,10.00485382202059,0.03162277660168379,-0.6439633799775012,-2.8690243026540414
22341193,1989,1,203017,225211,0.6,-0.86,9.96,-0.03,-0.01,-0.0,32.53,20.422706,-31.9799513784897,-1177.2377113343225,10.015048676866229,0.03162277660168379,-0.567080533195666,-2.94541844992745
22381205,1973,1,202864,224822,0.61,-0.85,9.93,-0.03,-0.01,-0.0,32.53,20.462718,-31.171509116538736,-1062.0939128540285,9.984963695477315,0.03162277660168379,-0.5527501152724139,-2.657178783272549
22421189,1990,1,202817,225041,0.61,-0.86,9.94,-0.03,-0.01,-0.0,32.53,20.502702,-32.706482975276884,-870.4129736725428,9.99576410285877,0.03162277660168379,-0.579959005668496,-2.177343562071075
22461880,1974,1,202961,225931,0.64,-0.88,9.94,-0.03,-0.01,-0.0,32.21,20.543393,-29.07165525592676,-638.7189292698973,9.999379980778807,0.03162277660168379,-0.5155281826538676,-1.5973434664864765
22500189,2032,1,203297,227112,0.64,-0.85,9.95,-0.03,-0.01,-0.0,32.21,20.581702,8.7577800524618,-392.28427457069233,10.006727736877824,0.03162277660168379,0.15503500198419506,-0.9804431760650947
22540192,2032,1,203596,227752,0.61,-0.85,9.95,-0.03,-0.01,-0.0,32.21,20.621705,29.94298213197674,-166.8468432170129,10.00485382202059,0.03162277660168379,0.5305631180618439,-0.41610527057170865
22580192,2032,1,203720,227737,0.64,-0.88,9.96,-0.03,-0.01,-0.0,32.21,20.661705,7.904789389619748,5.771779591728989,10.019261449827528,0.03162277660168379,0.13991492073849213,0.016011221619011497
22620192,2019,1,203616,227572,0.6,-0.86,9.97,-0.03,-0.01,-0.0,32.21,20.701705,18.504023662482993,128.8698607689143,10.024993765584096,0.03162277660168379,0.32779655922438355,0.324162857683391
22660189,2058,1,203656,227880,0.64,-0.87,9.92,-0.03,-0.01,-0.0,32.21,20.741702,34.36910154116704,246.18451048859004,9.978622149375132,0.03162277660168379,0.6090203485866899,0.6178368199395773
22700193,2046,1,203878,228866,0.61,-0.87,9.95,-0.03,-0.01,-0.0,32.21,20.781706,44.56710180143593,408.60918921513394,10.00657283988879,0.03162277660168379,0.7897897276619652,1.0244347945641576
22740192,2096,1,204174,229602,0.63,-0.88,9.93,-0.03,-0.01,-0.0,32.21,20.821705,78.08720716986322,629.7836810805616,9.988803732179344,0.03162277660168379,1.3839658876289034,1.578101276383137
22780193,2064,1,204319,229705,0.63,-0.85,9.94,-0.03,-0.01,-0.0,32.21,20.861706,56.71697692280852,864.158437762008,9.99614925858953,0.03162277660168379,1.0051579690307635,2.1648120035765372
22820192,2031,1,204304,229390,0.62,-0.86,9.96,-0.03,-0.01,-0.0,32.21,20.901705,24.1471452746018,1018.5134857906388,10.016266769610322,0.03162277660168379,0.42782632622127975,2.5512092579444143
22860193,2071,1,204211,229359,0.61,-0.85,9.92,-0.03,-0.01,-0.0,32.21,20.941706,56.04506555626944,989.7551928395293,9.975018796974771,0.03162277660168379,0.99324769275865,2.479218574267165
22900192,2067,1,204207,228363,0.62,-0.88,9.95,-0.03,-0.01,-0.0,32.21,20.981705,71.6500382215462,717.7251761032136,10.008061750409016,0.03162277660168379,1.2698608666353826,1.7982453705073291
22940192,2071,1,203576,225858,0.61,-0.86,9.96,-0.03,-0.01,-0.0,32.21,21.021705,52.05425005837664,234.16428462661528,10.015652749571544,0.03162277660168379,0.9225066434209,0.587746568086672
22980193,2037,1,202923,224482,0.63,-0.85,9.97,-0.03,-0.01,-0.0,32.21,21.061706,49.17093607510542,-324.4643915071332,10.025981248735707,0.03162277660168379,0.8713971253651265,-0.8106695473953734
23020192,2061,1,202588,223249,0.63,-0.85,9.95,-0.03,-0.01,-0.0,32.21,21.101705,44.43259488724861,-766.0769044978828,10.006093143680005,0.03162277660168379,0.7874054630278778,-1.916158902576508
23060189,2010,1,202257,222622,0.61,-0.85,9.94,-0.03,-0.01,-0.0,32.21,21.141702,24.948862196096563,-940.2134545528937,9.994908703935218,0.03162277660168379,0.4420375310059449,-2.352075224625593
23100193,2036,1,202293,223558,0.63,-0.88,9.94,-0.03,-0.01,-0.0,32.21,21.181706,27.13245716694636,-824.9106441480652,9.998744921238865,0.03162277660168379,0.480743855477249,-2.0634375031494434
23140192,2015,1,202703,225503,0.64,-0.85,9.94,-0.03,-0.01,-0.0,32.21,21.221705,30.147512849557145,-537.8669339010224,9.996784483022527,0.03162277660168379,0.5341886220700047,-1.3448804948781432
23180192,2015,1,203207,226403,0.63,-0.86,9.96,-0.03,-0.01,-0.0,32.21,21.261705,16.24461555123697,-254.68900647549316,10.0168907351533,0.03162277660168379,0.28774637380334345,-0.6360007073216347
23220190,1997,1,203295,226111,0.63,-0.85,9.95,-0.03,-0.01,-0.0,32.21,21.301703,12.080984790920118,-91.15378658854699,10.006093143680005,0.03162277660168379,0.21394200745384223,-0.22662271312061427
23260192,1984,1,203108,225359,0.66,-0.86,9.94,-0.03,-0.01,-0.0,32.21,21.341705,-3.7113472929481555,-42.64292956629623,9.998939943814044,0.03162277660168379,-0.06599229261413457,-0.10518540219474486
23300190,1974,1,202963,225466,0.62,-0.87,9.93,-0.03,-0.01,-0.0,32.21,21.381703,-11.484923718903298,-26.628865960853695,9.987301937961023,0.03162277660168379,-0.20378642360556268,-0.06509736952303209
23340192,1967,1,203217,226479,0.62,-0.86,9.94,-0.03,-0.01,-0.0,32.21,21.421705,-8.051838748766563,22.32600694527288,9.996379344542703,0.03162277660168379,-0.14293168517394056,0.057451447120444414
23380193,1961,1,203467,227477,0.63,-0.85,9.97,-0.03,-0.01,-0.0,32.21,21.461706,-26.202313169889,103.65252138069285,10.025981248735707,0.03162277660168379,-0.46466632993668344,0.2610362490851136
23420192,1937,1,203676,227830,0.59,-0.88,9.99,-0.03,-0.01,-0.0,32.21,21.501705,-25.260540545436413,190.08497869943045,10.046024089160845,0.03162277660168379,-0.4479725028914292,0.4774027665574426
23460192,1936,1,203666,227473,0.6,-0.88,9.94,-0.03,-0.01,-0.0,32.21,21.541705,-50.66730058170439,294.5682033188649,9.996899519350986,0.03162277660168379,-0.8983318006808161,0.7389558005273015
23500879,1857,1,203512,227377,0.61,-0.84,9.97,-0.03,-0.01,-0.0,31.33,21.582392,-97.80087439809203,470.4042330028168,10.023901436067694,0.03162277660168379,-1.7338198037143047,1.1791264328232087
23541193,1904,1,203706,228520,0.64,-0.85,9.96,-0.03,-0.01,-0.0,31.33,21.622706,-74.99730849220725,728.943784174,10.016671103715046,0.03162277660168379,-1.3296046297287902,1.826328931179586
23581193,1900,1,204199,229987,0.62,-0.85,9.97,-0.03,-0.01,-0.0,31.33,21.662706,-55.51762551152193,966.3496846376142,10.02535784897477,0.03162277660168379,-0.9843084827262553,2.420627525760431
23620189,1909,1,204546,230415,0.6,-0.85,9.99,-0.03,-0.01,-0.0,31.33,21.701702,-56.56564805969512,1001.4357439960851,10.044033054505546,0.03162277660168379,-1.0028856920275975,2.5084585178520324
23660192,1932,1,204305,228284,0.6,-0.88,9.96,-0.03,-0.01,-0.0,31.33,21.741705,-27.549081222361234,715.1238934076476,10.01678591165849,0.03162277660168379,-0.4885390911046072,1.791733575109391
23700189,1947,1,203292,224673,0.6,-0.85,9.96,-0.03,-0.01,-0.0,31.33,21.781702,-6.694334459673017,164.52930703998481,10.014194925204922,0.03162277660168379,-0.11886861386892049,0.4134292102089314
23740192,1952,1,202426,223027,0.64,-0.84,9.95,-0.03,-0.01,-0.0,31.33,21.821705,-7.9733681527725535,-443.5521745146073,10.005883269357083,0.03162277660168379,-0.14154071826361708,-1.1087821972279226
23780189,1923,1,202287,223409,0.62,-0.86,9.96,-0.03,-0.01,-0.0,31.33,21.861702,-25.24003740406237,-897.9109122891422,10.016266769610322,0.03162277660168379,-0.44760906495843383,-2.2461791985982305
23820223,1939,1,202410,223653,0.62,-0.85,9.95,-0.03,-0.01,-0.0,31.33,21.901736,-16.344748395201513,-1111.1294634018902,10.005468504772777,0.03162277660168379,-0.28993149780915617,-2.7799295603938554
23860190,1962,1,202328,223170,0.6,-0.85,9.95,-0.03,-0.01,-0.0,31.33,21.941703,14.311023643888044,-1126.5248557369343,10.004249097258624,0.03162277660168379,0.25347159447839895,-2.8184688722217
23900193,1949,1,202210,222645,0.61,-0.84,9.91,-0.03,-0.01,-0.0,31.33,21.981706,-0.09979574480312847,-1030.5236741722188,9.964226011085858,0.03162277660168379,-0.001974062157714467,-2.578148951063063
23940193,1931,1,202185,222978,0.62,-0.86,9.96,-0.03,-0.01,-0.0,31.33,22.021706,-17.210191183727186,-876.4211828300146,10.016266769610322,0.03162277660168379,-0.30527230497862334,-2.1923839222780472
23980192,1943,1,202438,224261,0.62,-0.86,9.96,-0.03,-0.01,-0.0,31.33,22.061705,-1.2594158561693873,-680.7872036037843,10.016266769610322,0.03162277660168379,-0.022529445776556727,-1.702653049206398
24020218,1946,1,202852,225541,0.61,-0.85,9.96,-0.03,-0.01,-0.0,31.33,22.101731,-1.9575802678127816,-460.04518406802185,10.014799049406834,0.03162277660168379,-0.03490508256457772,-1.1500691761061286
24060193,1934,1,203193,226108,0.61,-0.86,9.93,-0.03,-0.01,-0.0,31.33,22.141706,-7.44233436513181,-243.80925142763382,9.98581994630386,0.03162277660168379,-0.13212763279490994,-0.6087653979982356
24100192,1962,1,203241,225858,0.62,-0.86,9.97,-0.03,-0.01,-0.0,31.33,22.181705,15.126711306785378,-51.468535923918736,10.026210650091091,0.03162277660168379,0.2679304441134377,-0.12727855760670437
24140193,1966,1,203220,225887,0.6,-0.86,9.95,-0.03,-0.01,-0.0,31.33,22.221706,25.70739301510674,127.60514445655551,10.005103697613533,0.03162277660168379,0.45548322051981377,0.32099689118672636
24180190,1973,1,203433,226935,0.61,-0.86,9.93,-0.03,-0.01,-0.0,31.33,22.261703,28.009031779684328,318.223457048397,9.98581994630386,0.03162277660168379,0.4962819849549604,0.7981720374382658
24220214,1983,1,203804,228197,0.62,-0.85,9.96,-0.03,-0.01,-0.0,31.33,22.301727,41.816026593822535,525.9422893416444,10.015413121783844,0.03162277660168379,0.7410242692997838,1.318154943755167
24260192,1962,1,204156,228753,0.61,-0.85,9.97,-0.03,-0.01,-0.0,31.33,22.341705,21.170006304352498,725.7967652386085,10.024744385768647,0.03162277660168379,0.3750536698830085,1.8184509933239128
24300193,1968,1,204209,228561,0.61,-0.85,9.95,-0.03,-0.01,-0.0,31.33,22.381706,21.77248937506715,881.2803518187886,10.00485382202059,0.03162277660168379,0.3857332627263981,2.2076733201681114
24340193,1982,1,204079,228234,0.62,-0.85,9.94,-0.03,-0.01,-0.0,31.33,22.421706,49.804029658089625,964.1924519080449,9.995523998270425,0.03162277660168379,0.8826193190277866,2.4152273213979307
24380193,1975,1,204077,228588,0.62,-0.87,9.96,-0.03,-0.01,-0.0,31.33,22.461706,19.185859146977695,954.0097413609885,10.017130327593827,0.03162277660168379,0.3398827500478722,2.3897369247594247
24420190,1937,1,204273,228853,0.63,-0.85,9.93,-0.03,-0.01,-0.0,31.33,22.501703,15.312676721365866,833.1717856861675,9.986205485568581,0.03162277660168379,0.2712268602406427,2.0872430647107567
24460193,2000,1,204067,227561,0.64,-0.85,9.93,-0.03,-0.01,-0.0,31.33,22.541706,36.31511133388335,603.8414708339099,9.986841342486622,0.03162277660168379,0.6435152468928071,1.5131600973315709
24500879,1930,1,203659,226748,0.62,-0.85,9.97,-0.03,-0.01,-0.0,31.55,22.582392,12.285719560708104,316.10294411339726,10.02535784897477,0.03162277660168379,0.21757112848396054,0.7928637537999913
24539193,1978,1,203479,226183,0.6,-0.84,9.96,-0.03,-0.01,-0.0,31.55,22.620706,16.219201530851883,67.17063416888784,10.013351087423231,0.03162277660168379,0.2872958858088769,0.1697110787532349
24579190,1967,1,203344,226006,0.63,-0.85,9.95,-0.03,-0.01,-0.0,31.55,22.660703,42.09616436011965,-47.95612546022415,10.006093143680005,0.03162277660168379,0.7459899810841184,-0.11848593451651007
24619193,1995,1,203426,226758,0.65,-0.86,9.95,-0.03,-0.01,-0.0,31.55,22.700706,44.27130725107546,-1.6543721518331642,10.008226616139345,0.03162277660168379,0.7845464842968094,-0.0025786766763743188
24660193,1946,1,203735,228033,0.61,-0.87,9.95,-0.03,-0.01,-0.0,31.55,22.741706,8.728412860244742,143.12890622766855,10.00657283988879,0.03162277660168379,0.15451444021063399,0.359857550442305
24700193,1914,1,204082,228618,0.61,-0.85,9.94,-0.03,-0.01,-0.0,31.55,22.781706,-26.128801327427713,277.45573763137065,9.994908703935218,0.03162277660168379,-0.46336326170984893,0.6961181360546383
24740193,1926,1,204154,228449,0.61,-0.86,9.97,-0.03,-0.01,-0.0,31.55,22.821706,-18.528989391667775,323.41418471866723,10.025597239067606,0.03162277660168379,-0.3286492737068748,0.811165994847367
24780193,1923,1,204016,228009,0.61,-0.86,9.98,-0.03,-0.01,-0.0,31.55,22.861706,-15.00085632824394,277.1087445458975,10.035541838884436,0.03162277660168379,-0.26610971625512203,0.6952495076733586
24820193,1930,1,203919,228137,0.62,-0.89,9.94,-0.03,-0.01,-0.0,31.55,22.901706,-13.249277308845455,184.76062124505395,9.999004950493823,0.03162277660168379,-0.23506129071511375,0.46407429348241486
24860192,1921,1,204081,228850,0.61,-0.86,9.97,-0.03,-0.01,-0.0,31.55,22.941705,-21.610260231903258,86.61274749628079,10.025597239067606,0.03162277660168379,-0.3832677677583187,0.2183805541267925
24900190,1909,1,204282,229417,0.61,-0.85,9.99,-0.03,-0.01,-0.0,31.55,22.981703,-30.40410692209422,-7.692455234912632,10.044635384124204,0.03162277660168379,-0.5391471720825417,-0.017693820332150802
24940192,1927,1,204377,229457,0.58,-0.85,9.95,-0.03,-0.01,-0.0,31.55,23.021705,-19.331221234636953,-92.92361158896173,10.003069528899616,0.03162277660168379,-0.34286960597073457,-0.23105311905554057
24980192,1909,1,204310,229145,0.62,-0.85,9.95,-0.03,-0.01,-0.0,31.55,23.061705,-30.48467679329264,-139.6457456512133,10.005468504772777,0.03162277660168379,-0.540575350668245,-0.34801271675210077
25020193,1936,1,204302,229321,0.62,-0.84,9.97,-0.03,-0.01,-0.0,31.55,23.101706,-10.200468691282346,-119.92855812366876,10.024514950859219,0.03162277660168379,-0.18101822083371524,-0.2986546476652601
25060192,1952,1,204470,230165,0.63,-0.87,9.97,-0.03,-0.01,-0.0,31.55,23.141705,9.650491929837106,-75.23719145056816,10.02769664479336,0.03162277660168379,0.17085918002378284,-0.1867786734293477
25100193,1923,1,204712,230899,0.62,-0.86,9.96,-0.03,-0.01,-0.0,31.55,23.181706,-23.334818408810104,-143.72960596910818,10.016266769610322,0.03162277660168379,-0.4138372228340553,-0.3582358512346465
25140190,1918,1,204834,230661,0.61,-0.86,9.95,-0.03,-0.01,-0.0,31.55,23.221703,-25.481083316316994,-481.2142814857644,10.005708370725182,0.03162277660168379,-0.45188183596989023,-1.2030618136915519
25180193,1926,1,204400,228183,0.62,-0.86,9.96,-0.03,-0.01,-0.0,31.55,23.261706,-23.043919257898565,-1114.5244681408785,10.016266769610322,0.03162277660168379,-0.4086807551402197,-2.7884282815336245
25220192,1925,1,203473,225751,0.6,-0.85,9.96,-0.03,-0.01,-0.0,31.55,23.301705,-19.135776316733196,-1855.3128907624816,10.014194925204922,0.03162277660168379,-0.33940515651484204,-4.642845200346701
25260193,1950,1,203030,225607,0.63,-0.85,9.96,-0.03,-0.01,-0.0,31.55,23.341706,0.02931185142617654,-2373.1981769217955,10.016037140506219,0.03162277660168379,0.0003144943640184968,-5.939268318380156
25300193,1935,1,203422,227502,0.63,-0.87,9.96,-0.03,-0.01,-0.0,31.55,23.381706,-14.458531943461157,-2393.24228423602,10.017754239349257,0.03162277660168379,-0.2564964940750336,-5.989444766325254
25340193,1925,1,204275,230731,0.63,-0.85,9.96,-0.03,-0.01,-0.0,31.55,23.421706,-20.793925505634828,-1870.8263885793565,10.016037140506219,0.03162277660168379,-0.368797448301665,-4.681680165828172
25380192,1936,1,205349,234679,0.62,-0.86,9.98,-0.03,-0.01,-0.0,31.55,23.461705,-22.70645237025992,-1014.5154163681254,10.036154642092757,0.03162277660168379,-0.4026988294508694,-2.538075452063746
25420193,1911,1,206337,237653,0.62,-0.86,9.97,-0.03,-0.01,-0.0,31.55,23.501706,-30.47005499211199,-150.98263347903898,10.026210650091091,0.03162277660168379,-0.5403161651560927,-0.3763923673414091
25460193,1937,1,207145,239799,0.62,-0.86,9.95,-0.03,-0.01,-0.0,31.55,23.541706,-26.862568266503686,461.0124332213075,10.006323000982928,0.03162277660168379,-0.4763699875950699,1.1556159244498454
25500880,1931,1,207676,241268,0.64,-0.89,9.97,-0.03,-0.01,-0.0,31.75,23.582393,-14.101233447560999,743.5361596770938,10.030084745404697,0.03162277660168379,-0.25016303402404333,1.862858049605662
25539193,1986,1,207843,242515,0.64,-0.86,9.95,-0.03,-0.01,-0.0,31.75,23.620706,26.663546352532656,785.4068616358429,10.007582125568591,0.03162277660168379,0.4724319595564882,1.967673049062728
25579192,2002,1,207990,243254,0.61,-0.88,9.95,-0.03,-0.01,-0.0,31.75,23.660705,44.709631435572845,738.3701345634117,10.007447226940544,0.03162277660168379,0.7923162027360182,1.8499259301484998
25619192,1979,1,208195,244022,0.62,-0.89,9.95,-0.03,-0.01,-0.0,31.75,23.700705,29.221725142474067,710.5583573860251,10.00894599845558,0.03162277660168379,0.5177781430845375,1.7803046610181243
25659232,1985,1,208596,244726,0.63,-0.88,9.96,-0.03,-0.01,-0.0,31.75,23.740745,16.085602384116733,727.1333331790651,10.018627650531784,0.03162277660168379,0.2849277122273964,1.8217968261234514
25699192,1971,1,208796,245389,0.65,-0.89,9.91,-0.03,-0.01,-0.0,31.75,23.780705,25.11740734553421,763.1413193100249,9.971093219903223,0.03162277660168379,0.44502515615130744,1.9119356790732993
25739189,2014,1,208885,245698,0.65,-0.87,9.96,-0.03,-0.01,-0.0,31.75,23.820702,43.401000956714874,795.3885743176874,10.019031889359372,0.03162277660168379,0.7691194668010558,1.9926602874032475
25779192,1982,1,208956,245763,0.64,-0.86,9.93,-0.03,-0.01,-0.0,31.75,23.860705,29.535312082161603,818.8708009580569,9.98769743234145,0.03162277660168379,0.523336773691195,2.0514433853075027
25819192,2000,1,209165,246189,0.63,-0.87,9.96,-0.03,-0.01,-0.0,31.75,23.900705,36.525196386027574,825.3716069615297,10.017754239349257,0.03162277660168379,0.6472392068319988,2.067716864037231
25859216,1983,1,209561,246429,0.66,-0.9,9.92,-0.03,-0.01,-0.0,31.75,23.940729,20.550152714066822,787.4522283806776,9.98258483560245,0.03162277660168379,0.36406616784596035,1.9727932191153001
25899189,1942,1,209645,245325,0.66,-0.85,9.95,-0.03,-0.01,-0.0,31.75,23.980702,-15.999061065613054,678.5110260638319,10.008026778541312,0.03162277660168379,-0.28380385686690657,1.700080521990185
25939192,1989,1,209277,244853,0.69,-0.87,9.94,-0.03,-0.01,-0.0,31.75,24.020705,23.438590841268134,507.83384813382173,10.001829832585635,0.03162277660168379,0.41526651628934874,1.2728240520677963
25979192,1970,1,209276,245081,0.67,-0.84,9.96,-0.03,-0.01,-0.0,31.75,24.060705,9.60576609709776,325.9303959468408,10.017789177258624,0.03162277660168379,0.17006637155088886,0.8174648306962311
26019189,1936,1,209329,245208,0.69,-0.86,9.95,-0.03,-0.01,-0.0,31.75,24.100702,-25.551743653703664,189.4058546158539,10.010904055079141,0.03162277660168379,-0.4531343585222186,0.47570271408348397
26059190,1985,1,209359,245316,0.67,-0.89,9.95,-0.03,-0.01,-0.0,31.75,24.140703,19.460028055770863,121.29074184759946,10.012167597478578,0.03162277660168379,0.3447426580827226,0.3051900363916606
26099192,1985,1,209485,245677,0.68,-0.85,9.95,-0.03,-0.01,-0.0,31.75,24.180705,27.154378682471265,105.5582645897079,10.009365614263473,0.03162277660168379,0.48113243545848955,0.26580689930289625
26139189,1980,1,209572,245996,0.67,-0.88,9.97,-0.03,-0.01,-0.0,31.75,24.220702,12.498432007502497,115.07117724178202,10.031161448207282,0.03162277660168379,0.22134166152448345,0.2896205897312202
26179189,1965,1,209587,246123,0.68,-0.88,9.96,-0.03,-0.01,-0.0,31.75,24.260702,8.673077450690327,138.20717593714977,10.02189602819746,0.03162277660168379,0.1535335667677298,0.3475369746316394
26219192,1983,1,209583,246090,0.67,-0.88,9.96,-0.03,-0.01,-0.0,31.75,24.300705,14.295839135921659,175.67222518796714,10.021222480316462,0.03162277660168379,0.25320243444637375,0.4413232961686451
26259189,1967,1,209688,246049,0.68,-0.88,9.96,-0.03,-0.01,-0.0,31.75,24.340702,14.529350951777484,215.749800835779,10.02189602819746,0.03162277660168379,0.2573416563410283,0.5416495594805063
26299193,1936,1,209751,246095,0.67,-0.88,9.94,-0.03,-0.01,-0.0,31.75,24.380706,-36.6261136767551,223.58793889711401,10.001344909560913,0.03162277660168379,-0.6494382359123988,0.5612707838261748
26339188,1918,1,209791,246098,0.68,-0.89,9.93,-0.03,-0.01,-0.0,31.75,24.420701,-28.686047078626256,167.27005835114798,9.992967527216328,0.03162277660168379,-0.5086929062273181,0.4202901376296023
26379193,1964,1,209668,246042,0.67,-0.89,9.92,-0.03,-0.01,-0.0,31.75,24.460706,-10.293652980435274,60.43542724638629,9.982354431695962,0.03162277660168379,-0.182670002130032,0.15285082380406476
26419189,1887,1,209473,245779,0.67,-0.87,9.95,-0.03,-0.01,-0.0,31.75,24.500702,-59.96822546088655,-27.301417701411744,10.010409582030096,0.03162277660168379,-1.063199654409544,-0.06678096943952957
26459192,1910,1,209362,245612,0.68,-0.87,9.96,-0.03,-0.01,-0.0,31.75,24.540705,-56.295256126444094,-19.442349557183178,10.021022901879828,0.03162277660168379,-0.9980927345228617,-0.04710735078174072
26499188,1907,1,209411,245572,0.66,-0.88,9.96,-0.03,-0.01,-0.0,31.75,24.580701,-49.60176219653341,89.9095325586091,10.020558866650104,0.03162277660168379,-0.8794441062944314,0.22663340178285624
26539876,1906,1,209510,245680,0.68,-0.87,9.98,-0.03,-0.01,-0.0,31.85,24.621389,-45.575031777496655,201.58515150747414,10.040901353962203,0.03162277660168379,-0.8080664303799964,0.5061911687155629
26578189,1968,1,209551,245829,0.67,-0.87,9.97,-0.03,-0.01,-0.0,31.85,24.659702,0.8348375721260354,166.80924875530934,10.030289128434934,0.03162277660168379,0.014593213783882265,0.41913659218426386
26618191,1934,1,209421,244532,0.65,-0.88,9.96,-0.03,-0.01,-0.0,31.85,24.699704,-7.1809965338396085,-98.56139591531736,10.019905189172201,0.03162277660168379,-0.1274951679698576,-0.24516619415249497
