timestamp_us,ecg,leads,ir,red,accX,accY,accZ,gyroX,gyroY,gyroZ,temp,time_sec,ecg_filtered,ppg_filtered,accel_magnitude,gyro_magnitude,ecg_norm,ppg_norm
1947959,1920.5,1,201594,231457,0.56,-0.79,9.919999999999998,-0.03,-0.01,-0.0,31.859999999999996,0.030471,-0.8395985311123629,38.03398275665114,9.967151047315374,0.03162277660168379,-0.03057176710442253,0.10039185928788909
1988199,1920.5,1,201671,231530,0.57,-0.79,9.96,-0.03,-0.01,-0.0,31.859999999999996,0.070711,-4.428469315047335,104.25266023612807,10.007527167087781,0.03162277660168379,-0.15997214132380058,0.2742105164291056
2028189,1920.5,1,201741,231780,0.56,-0.81,9.96,-0.03,-0.01,-0.0,31.859999999999996,0.110701,-8.370603349486053,189.6895400110578,10.008561335177,0.03162277660168379,-0.3021097801495733,0.49847539573625355
2068193,1920.5,1,201854,232107,0.56,-0.8,9.96,-0.03,-0.01,-0.0,31.859999999999996,0.150705,-11.981724391139991,271.0199952603814,10.00775699145418,0.03162277660168379,-0.4323124099665059,0.7119612437510016
2108189,1920.5,1,201994,232150,0.56,-0.79,9.96,-0.03,-0.01,-0.0,31.859999999999996,0.190701,-15.793820372676267,283.5314531195359,10.006962576126686,0.03162277660168379,-0.5697613949729049,0.7448028057805538
2148192,1920.5,1,201992,231637,0.58,-0.79,9.95,-0.03,-0.01,-0.0,31.859999999999996,0.230704,-20.100703398241023,171.83166987733537,9.998149828843333,0.03162277660168379,-0.7250504284265163,0.45159993515327984
2188189,1920.5,1,201662,230458,0.58,-0.82,9.97,-0.03,-0.01,-0.0,31.859999999999996,0.270701,-23.422017288399733,-53.15618836378855,10.020464061110143,0.03162277660168379,-0.844803767613426,-0.13897494313043335
2228193,1920.5,1,201363,229897,0.5549999999999999,-0.81,9.97,-0.03,-0.01,-0.0,31.859999999999996,0.310705,-28.361286357134265,-303.902953581594,10.018234624922696,0.03162277660168379,-1.0228941209149363,-0.7971648628274995
2268189,1920.5,1,201253,230147,0.57,-0.82,9.96,-0.03,-0.01,-0.01,31.859999999999996,0.350701,-32.00863792776341,-466.71516984823353,10.009940059760599,0.033166247903554,-1.1544030791816264,-1.2245337242250038
2308193,1920.5,1,201418,230712,0.58,-0.82,9.95,-0.03,-0.01,-0.0,31.859999999999996,0.390705,-36.174399557743506,-474.2523258134414,10.00056498403965,0.03162277660168379,-1.3046038376600677,-1.244318147267013
2348189,1920.5,1,201464,231304,0.58,-0.8,9.96,-0.03,-0.01,-0.0,31.859999999999996,0.430701,-41.78669391776675,-344.4381193929975,10.008896043020929,0.03162277660168379,-1.5069608000971615,-0.9035663851248664
2388193,1920.5,1,201743,231880,0.56,-0.81,9.94,-0.03,-0.01,-0.0,31.859999999999996,0.470705,-44.02594679504502,-160.4862342058985,9.988658568596685,0.03162277660168379,-1.587699332559432,-0.42070760752806924
2428190,1920.5,1,201929,232188,0.58,-0.8,9.95,-0.03,-0.01,-0.0,31.859999999999996,0.510702,-51.29780894499978,-12.237713769034,9.998944944342878,0.03162277660168379,-1.8498936939970285,-0.03156726636836641
2468192,1920.5,1,201960,232426,0.56,-0.79,9.96,-0.03,-0.01,-0.0,31.859999999999996,0.550704,-54.0172094693906,57.71104788722398,10.006962576126686,0.03162277660168379,-1.9479444366104803,0.15204255917594495
2508188,1920.5,1,202003,232641,0.58,-0.83,9.97,-0.03,-0.01,-0.0,31.859999999999996,0.5907,-57.98611100603906,69.61332691486867,10.021287342452565,0.03162277660168379,-2.0910472048631368,0.18328507618553724
2548192,1920.5,1,202113,232837,0.57,-0.81,9.96,-0.03,-0.01,-0.0,31.859999999999996,0.630704,-67.9145520323475,79.87163733508592,10.009125835955906,0.03162277660168379,-2.4490272107107414,0.21021230894902065
2588189,1933.0,1,202168,233066,0.58,-0.81,9.96,-0.03,-0.01,-0.0,31.859999999999996,0.670701,-48.68539041252859,134.29789173111064,10.009700295213639,0.03162277660168379,-1.7557002955518601,0.3530768120233273
2628193,1978.0,1,202277,233312,0.58,-0.82,9.95,-0.03,-0.01,-0.0,31.859999999999996,0.710705,-26.59977352043295,231.9476152443019,10.00056498403965,0.03162277660168379,-0.9593809899095715,0.6093994155143817
2668189,1957.0,1,202365,233629,0.57,-0.8,9.95,-0.03,-0.01,-0.0,31.859999999999996,0.750701,-27.482845520398737,321.0593957179339,9.998369867133341,0.03162277660168379,-0.9912210460547353,0.8433106110708042
2708192,2005.0,1,202449,233829,0.57,-0.79,9.98,-0.03,-0.01,-0.0,31.859999999999996,0.790704,-13.449455208695733,330.3547624196712,10.027432373244908,0.03162277660168379,-0.4852329324593179,0.8677101946812124
2748189,2015.0,1,202468,233543,0.58,-0.8,9.95,-0.03,-0.01,-0.0,31.859999999999996,0.830701,23.99415783178059,218.11183486111477,9.998944944342878,0.03162277660168379,0.8648344929972049,0.5730816142799532
2788192,2085.0,1,202176,232607,0.5549999999999999,-0.82,9.94,-0.03,-0.01,-0.01,31.859999999999996,0.870704,58.413839643303604,6.6970897959192275,9.989195413045035,0.033166247903554,2.1058710125788753,0.018135057117525222
2828189,2079.0,1,201928,231868,0.58,-0.84,9.98,-0.03,-0.01,-0.01,31.859999999999996,0.910701,76.87747353942892,-224.62113279812704,10.032068580307852,0.033166247903554,2.7715960496303897,-0.5890565141132891
2868193,2106.0,1,201791,231450,0.56,-0.82,9.95,-0.03,-0.01,-0.0,31.859999999999996,0.950705,75.99549592143866,-386.6918490694126,9.999424983467799,0.03162277660168379,2.739795452536749,-1.0144789981688027
2908190,2053.0,1,201829,231342,0.56,-0.81,9.96,-0.03,-0.01,-0.01,31.859999999999996,0.990702,38.652333141048395,-433.18065500604246,10.008561335177,0.033166247903554,1.3933498630359133,-1.1365083428730673
2948193,2053.0,1,201943,231573,0.58,-0.81,9.97,-0.03,-0.01,-0.0,31.859999999999996,1.030705,20.083774328849255,-379.88862041895544,10.019650692514187,0.03162277660168379,0.7238416517710311,-0.9966210747964488
2988876,2066.0,1,202057,232022,0.58,-0.79,9.96,-0.03,-0.01,-0.0,31.859999999999996,1.071388,42.744474190116456,-280.37658148348356,10.008101718108184,0.03162277660168379,1.5408961568390285,-0.7354100443812155
3027198,2058.0,1,202135,232351,0.57,-0.8,9.92,-0.03,-0.01,-0.0,31.859999999999996,1.10971,20.240193388181105,-182.7960916188619,9.968515436111838,0.03162277660168379,0.7294814995201306,-0.4792691736018582
3067223,2033.0,1,202202,232701,0.57,-0.78,9.95,-0.03,-0.01,-0.0,31.859999999999996,1.149735,4.330345656528453,-102.70441941604432,9.996789484629552,0.03162277660168379,0.15583581144888262,-0.26903503060190326
3107192,2085.0,1,202302,232983,0.58,-0.81,9.98,-0.03,-0.01,-0.0,31.859999999999996,1.189704,42.9927249006099,-26.529384972348836,10.029601188482022,0.03162277660168379,1.5498470878622002,-0.06908174402663574
3147188,2099.0,1,202434,233162,0.57,-0.82,9.98,-0.03,-0.01,-0.0,31.859999999999996,1.2297,64.91434077838022,66.49778879236148,10.029840477295739,0.03162277660168379,2.3402531706821317,0.17510704132680263
3187193,2108.5,1,202667,233260,0.58,-0.81,9.97,-0.03,-0.01,-0.0,31.859999999999996,1.269705,65.74074458018201,184.84444650893377,10.019650692514187,0.03162277660168379,2.3700499974968934,0.48575741829667324
3227189,2087.0,1,202739,233430,0.57,-0.81,9.95,-0.03,-0.01,-0.0,31.859999999999996,1.309701,46.92673045137226,316.78815518171933,9.999174965965942,0.03162277660168379,1.6916916459690277,0.8320989511193947
3267193,2086.0,1,202776,233581,0.56,-0.82,9.94,-0.03,-0.01,-0.0,31.859999999999996,1.349705,43.9370497621668,430.2464803717838,9.98947446065107,0.03162277660168379,1.5838956780251887,1.1299178517179551
3307189,2090.0,1,202839,233773,0.57,-0.8,9.95,-0.03,-0.01,-0.01,31.859999999999996,1.389701,46.92438619918643,478.0567885480435,9.998369867133341,0.033166247903554,1.6916071215800559,1.2554160326093025
3347192,2044.0,1,202868,233915,0.58,-0.82,9.98,-0.03,-0.01,-0.0,31.859999999999996,1.429704,0.7801267813708337,414.9849634533783,10.03041375018997,0.03162277660168379,0.027829070982625853,1.0898576077253541
3387190,2046.0,1,202772,233178,0.58,-0.81,9.94,-0.03,-0.01,-0.0,31.859999999999996,1.469702,3.786919112025017,227.69795200767322,9.989799797793747,0.03162277660168379,0.13624201650528558,0.5982443942241705
3427193,2061.0,1,202410,231882,0.58,-0.81,9.95,-0.03,-0.01,-0.0,31.859999999999996,1.509705,16.60984598858894,-40.797666737816385,9.999749996874922,0.03162277660168379,0.598585643877621,-0.10653482630775993
3467189,2007.0,1,202067,231184,0.57,-0.81,9.96,-0.03,-0.01,-0.0,31.859999999999996,1.549701,-34.62684107862142,-299.2278821284454,10.009125835955906,0.03162277660168379,-1.2488050479067059,-0.7848931794753611
3507192,2019.0,1,201951,231165,0.56,-0.81,9.96,-0.03,-0.01,-0.0,31.859999999999996,1.589704,-22.880889842481807,-453.57394079015995,10.008561335177,0.03162277660168379,-0.8252928689999682,-1.1900390638813656
3547190,2028.0,1,201983,231369,0.56,-0.79,9.96,-0.03,-0.01,-0.0,31.859999999999996,1.629702,-15.14989752112931,-460.28128750126086,10.006962576126686,0.03162277660168379,-0.546544103803891,-1.207645304940249
3587193,1979.0,1,202123,231699,0.57,-0.78,9.96,-0.03,-0.01,-0.0,31.859999999999996,1.669705,-58.16331893374581,-347.05212338738,10.006742726781779,0.03162277660168379,-2.097436616335553,-0.9104279335785661
3627189,2013.0,1,202286,231994,0.59,-0.82,9.96,-0.03,-0.01,-0.0,31.859999999999996,1.709701,-30.8467060554657,-187.15075739857545,10.01109884078666,0.03162277660168379,-1.1125084476541318,-0.49069981805052165
3667193,2002.0,1,202356,232281,0.57,-0.83,9.97,-0.03,-0.01,-0.01,31.859999999999996,1.749705,-31.403404548401728,-49.67818893114344,10.020713547447608,0.033166247903554,-1.1325807761524853,-0.12984547673316724
3707190,1977.0,1,202437,232450,0.58,-0.8,9.95,-0.03,-0.01,-0.0,31.859999999999996,1.789702,-65.59474450386006,37.788201650561966,9.998944944342878,0.03162277660168379,-2.3653841986393864,0.09974670382062166
3747193,2007.0,1,202466,232614,0.58,-0.8,9.96,-0.03,-0.01,-0.0,31.859999999999996,1.829705,-23.515266683525866,93.75487826144061,10.008896043020929,0.03162277660168379,-0.848165969083333,0.24665469025956344
3787241,2026.0,1,202570,232811,0.56,-0.82,9.98,-0.03,-0.01,-0.0,31.859999999999996,1.869753,-14.08148756761777,160.22872152215388,10.029277142446508,0.03162277660168379,-0.5080214998631283,0.42114313687908295
3827193,1991.0,1,202721,233055,0.58,-0.81,9.95,-0.03,-0.01,-0.01,31.859999999999996,1.909705,-38.31181250392858,271.9731900918385,9.999749996874922,0.033166247903554,-1.3816704281697536,0.71446330286641
3867190,2000.0,1,202816,233406,0.58,-0.81,9.97,-0.03,-0.01,-0.0,31.859999999999996,1.949702,-34.47541651670038,432.5126447050334,10.019650692514187,0.03162277660168379,-1.2433452818247674,1.1358663492757453
3907193,1989.0,1,202950,233599,0.58,-0.82,9.95,-0.03,-0.01,-0.0,31.859999999999996,1.989705,-42.856800159848916,603.244246578591,10.00056498403965,0.03162277660168379,-1.5455445654418971,1.5840229555206848
3947190,1991.0,1,203002,233687,0.5549999999999999,-0.82,9.95,-0.03,-0.01,-0.0,31.859999999999996,2.029702,-35.064332048036114,710.4003746173059,9.999146213552434,0.03162277660168379,-1.2645792283016293,1.8652990997915269
3987197,1989.0,1,203003,233565,0.57,-0.8,9.96,-0.03,-0.01,-0.0,31.859999999999996,2.069709,-45.56814121453483,674.8784730272225,10.0083215376006,0.03162277660168379,-1.6433047157051055,1.7720569894306795
4027892,1973.0,1,202933,232770,0.58,-0.79,9.96,-0.03,-0.01,-0.0,31.859999999999996,2.110404,-48.69179604197711,458.8747579884012,10.008101718108184,0.03162277660168379,-1.7559312570151315,1.20506475831585
4066193,2038.0,1,202499,231049,0.57,-0.8,9.97,-0.03,-0.01,-0.0,31.859999999999996,2.148705,8.137630246764845,102.63958635073814,10.018273304317466,0.03162277660168379,0.29311131686456804,0.26997632832235974
4106189,2058.0,1,201913,229799,0.5549999999999999,-0.81,9.96,-0.03,-0.01,-0.0,31.859999999999996,2.188701,31.372593460858262,-281.61194771698575,10.008282819744855,0.03162277660168379,1.1308714692600823,-0.7386527805390238
4146193,2053.0,1,201691,229519,0.58,-0.81,9.96,-0.03,-0.01,-0.0,31.859999999999996,2.228705,35.3721610807698,-564.7567774894637,10.009700295213639,0.03162277660168379,1.275079934231564,-1.481884991764986
4186189,2064.0,1,201710,229676,0.58,-0.81,9.98,-0.03,-0.01,-0.0,31.859999999999996,2.268701,29.05113660797312,-669.4405180014345,10.029601188482022,0.03162277660168379,1.047168989125618,-1.756671319322642
4226193,2018.0,1,201724,230209,0.5549999999999999,-0.81,9.97,-0.03,-0.01,-0.01,31.859999999999996,2.308705,9.72303214900912,-603.6266198621267,10.018234624922696,0.033166247903554,0.3502745896011772,-1.5839151751162166
4266190,2053.0,1,201905,230824,0.58,-0.81,9.95,-0.03,-0.01,-0.0,31.859999999999996,2.348702,17.920984394657886,-440.27942400817653,9.999749996874922,0.03162277660168379,0.6458600682336568,-1.1551420356961997
4306193,2015.0,1,202037,231289,0.57,-0.8,9.97,-0.03,-0.01,-0.01,31.859999999999996,2.388705,4.644545865619413,-266.30780160306574,10.018273304317466,0.033166247903554,0.16716461849821262,-0.6984806383660093
4346189,2017.0,1,202125,231561,0.57,-0.81,9.96,-0.03,-0.01,-0.01,31.859999999999996,2.428701,-7.435216252930592,-138.82816078574112,10.009125835955906,0.033166247903554,-0.26838345016408904,-0.36385692156678007
4386193,2018.0,1,202222,231834,0.56,-0.8,9.95,-0.03,-0.01,-0.0,31.859999999999996,2.468705,-1.2286248588838564,-69.92191787801482,9.997804759045856,0.03162277660168379,-0.044598505715397786,-0.18298362317480402
4426189,2038.0,1,202315,232119,0.58,-0.8,9.94,-0.03,-0.01,-0.0,31.859999999999996,2.508701,24.797526227789433,-36.573156979484835,9.988993943335835,0.03162277660168379,0.8938007549046855,-0.09544583085778684
4466193,2063.0,1,202383,232428,0.57,-0.81,9.95,-0.03,-0.01,-0.0,31.859999999999996,2.548705,40.66597242706974,-2.2947069858872147,9.999174965965942,0.03162277660168379,1.4659536687567505,-0.005467680076746118
4506189,1999.0,1,202390,232693,0.57,-0.81,9.919999999999998,-0.03,-0.01,-0.0,31.859999999999996,2.588701,-12.84081242011804,58.98125860630145,9.96932294591764,0.03162277660168379,-0.46328769972471234,0.1553767592820231
4546193,1991.0,1,202431,232995,0.58,-0.81,9.96,-0.03,-0.01,-0.0,31.859999999999996,2.628705,-23.700361840194585,142.78039136216304,10.009700295213639,0.03162277660168379,-0.8548397625914028,0.3753426855078492
4586189,2032.0,1,202552,233332,0.58,-0.83,9.95,-0.03,-0.01,-0.0,31.859999999999996,2.668701,14.029968516756586,207.9976668900465,10.001389903408425,0.03162277660168379,0.5055655463612602,0.5465327437535574
4626193,2035.0,1,202608,233642,0.57,-0.81,9.96,-0.03,-0.01,-0.0,31.859999999999996,2.708705,30.020594581540042,195.68989601000283,10.009125835955906,0.03162277660168379,1.0821237791200276,0.5142258435223652
4666190,2057.0,1,202564,233099,0.5549999999999999,-0.81,9.99,-0.03,-0.01,-0.0,31.859999999999996,2.748702,37.27569574457505,68.48708036660419,10.038138522654487,0.03162277660168379,1.3437138061833107,0.18032877035037564
4706193,2032.0,1,202238,232138,0.57,-0.83,9.95,-0.03,-0.01,-0.0,31.859999999999996,2.788705,28.037549920242572,-154.8946943129952,10.000814966791456,0.03162277660168379,1.0106230936079459,-0.4060302688597272
4746189,2058.0,1,201982,231613,0.56,-0.8,9.95,-0.03,-0.01,-0.0,31.859999999999996,2.828701,46.96651947212077,-398.4614577037772,9.997804759045856,0.03162277660168379,1.6931262794469806,-1.0453732661574222
4786193,2053.0,1,201925,231693,0.57,-0.81,9.96,-0.03,-0.01,-0.0,31.859999999999996,2.868705,41.76358149881625,-565.6695941615653,10.009125835955906,0.03162277660168379,1.5055290765051605,-1.4842810614873085
4826189,1991.0,1,201927,232038,0.57,-0.81,9.96,-0.03,-0.01,-0.0,31.859999999999996,2.908701,-7.292991686966695,-589.6759324745772,10.009125835955906,0.03162277660168379,-0.2632553992625912,-1.54729575231587
4866193,2011.0,1,202090,232505,0.57,-0.79,9.95,-0.03,-0.01,-0.0,31.859999999999996,2.948705,-6.164877262547633,-465.3760549128566,9.997574705897424,0.03162277660168379,-0.2225800900997329,-1.221018656140216
4906189,1995.0,1,202307,233013,0.58,-0.81,9.97,-0.03,-0.01,-0.0,31.859999999999996,2.988701,3.835946192961348,-247.75035222409375,10.019650692514187,0.03162277660168379,0.1380097376081025,-0.6497688390097214
4946192,2022.0,1,202533,233290,0.57,-0.82,9.98,-0.03,-0.01,-0.0,31.859999999999996,3.028704,6.79080369207413,-21.67818442023372,10.029840477295739,0.03162277660168379,0.244550120132239,-0.056347736076194276
4986189,2014.0,1,202752,233564,0.58,-0.82,9.96,-0.03,-0.01,-0.0,31.859999999999996,3.068701,21.98963570154593,140.69758774711028,10.01051447229362,0.03162277660168379,0.7925594155704858,0.3698754949622581
5026198,2015.0,1,202927,233775,0.58,-0.78,9.95,-0.03,-0.01,-0.0,31.859999999999996,3.10871,7.7883804287891,216.11371392337085,9.997364652747242,0.03162277660168379,0.2805187606364612,0.5678367088933719
5066876,1978.0,1,202974,234055,0.56,-0.83,9.95,-0.03,-0.01,-0.0,31.859999999999996,3.149388,-18.61666378458647,241.1693119477705,10.000249996875077,0.03162277660168379,-0.6715418757578339,0.6336056213549813
5107193,1982.0,1,203009,234274,0.57,-0.81,9.97,-0.03,-0.01,-0.01,31.859999999999996,3.189705,-16.449246212189795,286.6967207714476,10.019076803777882,0.033166247903554,-0.5933934380338448,0.7531113766202288
5147190,2000.0,1,203123,234644,0.57,-0.79,9.97,-0.03,-0.01,-0.0,31.859999999999996,3.229702,-0.45689741927002964,404.1039940229284,10.017479722964255,0.03162277660168379,-0.01677309056576137,1.0612959455661906
5187193,1983.0,1,203360,234944,0.58,-0.81,9.94,-0.03,-0.01,-0.0,31.859999999999996,3.269705,-9.359085382220902,576.8541913402211,9.989799797793747,0.03162277660168379,-0.3377505018823228,1.5147512011151751
5227189,1979.0,1,203513,235089,0.57,-0.82,9.95,-0.03,-0.01,-0.0,31.859999999999996,3.309701,-22.829856582185435,716.5724291213553,9.999989999994998,0.03162277660168379,-0.823452813066624,1.881500242226435
5267193,1979.0,1,203690,234962,0.58,-0.82,9.94,-0.03,-0.01,-0.0,31.859999999999996,3.349705,-10.571879515056516,716.4882840794382,9.990615596648686,0.03162277660168379,-0.38147902377352444,1.881279368316719
5307189,2000.0,1,203580,233826,0.58,-0.79,9.94,-0.03,-0.01,-0.0,31.859999999999996,3.389701,-1.0850373000262246,529.3713617031591,9.988198035681911,0.03162277660168379,-0.039421310723425286,1.3901126248262237
5347193,1984.0,1,203080,232497,0.58,-0.82,9.96,-0.03,-0.01,-0.0,31.859999999999996,3.429705,-5.655276921299968,210.83692609930182,10.01051447229362,0.03162277660168379,-0.2042059332047697,0.5539855688750128
5387190,1984.0,1,202784,231880,0.57,-0.81,9.96,-0.03,-0.01,-0.0,31.859999999999996,3.469702,-14.754953138745826,-109.02798148677599,10.009125835955906,0.03162277660168379,-0.5323039837346392,-0.2856338681100122
5427230,1968.0,1,202764,231927,0.58,-0.8,9.96,-0.03,-0.01,-0.0,31.859999999999996,3.509742,-24.26949652355708,-305.85212546269634,10.008896043020929,0.03162277660168379,-0.8753604905423784,-0.8022812809108362
5467190,1971.0,1,202775,232151,0.59,-0.8,9.99,-0.03,-0.01,-0.0,31.859999999999996,3.549702,-24.434089976349565,-332.2615598632126,10.039332647143434,0.03162277660168379,-0.8812950743342347,-0.8716039040450644
5507193,1971.0,1,202905,232560,0.57,-0.81,9.95,-0.03,-0.01,-0.0,31.859999999999996,3.589705,-25.488830674643086,-231.75469405628246,9.999174965965942,0.03162277660168379,-0.9193248194213353,-0.6077815337863485
5547190,1966.0,1,203082,232920,0.57,-0.81,9.97,-0.03,-0.01,-0.0,31.859999999999996,3.629702,-26.561095486328774,-95.6038232296663,10.019076803777882,0.03162277660168379,-0.9579864141813078,-0.25039654156834035
5587193,1993.0,1,203194,233096,0.58,-0.81,9.93,-0.03,-0.01,-0.0,31.859999999999996,3.669705,-7.515272895173203,-1.9869779358803217,9.979849698267003,0.03162277660168379,-0.27126997355504334,-0.004659916281522056
5626227,1996.0,1,203207,233097,0.56,-0.83,9.94,-0.03,-0.01,-0.01,31.859999999999996,3.708739,4.013720811296379,21.90894899627704,9.990300295786907,0.033166247903554,0.14441958168558627,0.058064953628172676
5666193,1989.0,1,203233,233241,0.57,-0.81,9.96,-0.03,-0.01,-0.01,31.859999999999996,3.748705,-13.596747187974293,0.1107930627051236,10.009125835955906,0.033166247903554,-0.49054369408480636,0.0008465624317823705
5706190,1981.0,1,203323,233485,0.58,-0.79,9.95,-0.03,-0.01,-0.0,31.859999999999996,3.788702,-13.911314185844768,-17.716943597638075,9.998149828843333,0.03162277660168379,-0.5018857260754024,-0.04594980022780859
5746193,1996.0,1,203432,233616,0.57,-0.78,9.96,-0.03,-0.01,-0.01,31.859999999999996,3.828705,-6.134378545517604,12.27066375753733,10.006742726781779,0.033166247903554,-0.22148042794010242,0.03276523667352685
5786190,1984.0,1,203461,233754,0.57,-0.82,9.95,-0.03,-0.01,-0.0,31.859999999999996,3.868702,-16.54831674005788,102.71913501952668,9.999989999994998,0.03162277660168379,-0.5969655263457526,0.27018513712544223
5826230,2004.0,1,203572,233849,0.58,-0.81,9.97,-0.03,-0.01,-0.0,31.859999999999996,3.908742,2.6662464102325765,221.1094621948788,10.019650692514187,0.03162277660168379,0.09583502619554173,0.5809501428824182
5866189,2021.0,1,203671,234097,0.57,-0.79,9.96,-0.03,-0.01,-0.0,31.859999999999996,3.948701,16.2116600779584,295.6179202900504,10.007527167087781,0.03162277660168379,0.5842286472214245,0.7765288017249963
5906193,2001.0,1,203808,234227,0.58,-0.81,9.95,-0.03,-0.01,-0.01,31.859999999999996,3.988705,-3.967499855267219,248.7360069636391,9.999749996874922,0.033166247903554,-0.14335142015817268,0.6534675820089532
5946190,1991.0,1,203697,233146,0.58,-0.79,9.95,-0.03,-0.01,-0.0,31.859999999999996,4.028702,-12.164451156179279,48.021722257094304,9.998149828843333,0.03162277660168379,-0.4389008087134942,0.12660886533397583
5986193,1998.0,1,203222,231661,0.58,-0.8,9.94,-0.03,-0.01,-0.0,31.859999999999996,4.068705,-16.836366360113963,-260.49110353337807,9.988993943335835,0.03162277660168379,-0.607351447398095,-0.6832122777470228
6026193,1987.0,1,202921,231076,0.57,-0.79,9.99,-0.03,-0.01,-0.0,31.859999999999996,4.108705,-10.207778493140271,-568.0301118138005,10.037385117648919,0.03162277660168379,-0.3683509923324031,-1.4904772288540884
6066193,2009.0,1,202892,230916,0.57,-0.8,9.97,-0.03,-0.01,-0.0,31.859999999999996,4.148705,-16.42615597579475,-762.731786456068,10.018273304317466,0.03162277660168379,-0.5925608961536223,-2.0015533318154293
6106876,1968.0,1,202844,231071,0.58,-0.8,9.95,-0.03,-0.01,-0.0,31.859999999999996,4.189388,-26.461062751202356,-790.6799042145916,9.998944944342878,0.03162277660168379,-0.9543796325112935,-2.0749148739561156
6145193,2047.0,1,203002,231673,0.59,-0.79,9.98,-0.03,-0.01,-0.0,31.859999999999996,4.227705,18.08486994306381,-675.8244155208803,10.028589133073506,0.03162277660168379,0.6517691278152399,-1.7734285324895935
6185189,2047.0,1,203270,232157,0.58,-0.81,9.96,-0.03,-0.01,-0.0,31.859999999999996,4.267701,46.98759856359568,-491.0599919667784,10.009700295213639,0.03162277660168379,1.6938863074583728,-1.2884369075874131
6225193,2065.0,1,203442,232310,0.59,-0.8,9.96,-0.03,-0.01,-0.0,31.859999999999996,4.307705,40.976831440405455,-308.1462158936079,10.0094805060003,0.03162277660168379,1.4771620056060932,-0.8083030822097997
6265189,2055.0,1,203525,232564,0.595,-0.8,9.97,-0.03,-0.01,-0.01,31.859999999999996,4.347701,44.33124578798166,-162.59321867531216,10.019726792682523,0.033166247903554,1.5981088153397358,-0.4262382708549589
6305193,2054.0,1,203707,232874,0.57,-0.8,9.96,-0.03,-0.01,-0.0,31.859999999999996,4.387705,37.2048935150048,-50.22902804265287,10.0083215376006,0.03162277660168379,1.3411609600226273,-0.13129138472027715
6345189,2054.0,1,203881,233289,0.57,-0.8,9.97,-0.03,-0.01,-0.0,31.859999999999996,4.427701,34.91678887824083,54.234308414912604,10.018273304317466,0.03162277660168379,1.2586610278501693,0.14291640007235487
6385193,2064.0,1,204048,233685,0.58,-0.8,9.97,-0.03,-0.01,-0.0,31.859999999999996,4.467705,50.31503702255447,176.25149915829954,10.018847239078955,0.03162277660168379,1.813860474181958,0.463201628507073
6425190,2056.0,1,204215,234131,0.59,-0.82,9.95,-0.03,-0.01,-0.0,31.859999999999996,4.507702,35.21187893481869,327.41078528074775,10.001149933882603,0.03162277660168379,1.269300798978325,0.8599824934884377
6466193,2004.0,1,204337,234474,0.57,-0.81,9.96,-0.03,-0.01,-0.0,31.859999999999996,4.548705,-12.360966046980385,495.48724760241225,10.009125835955906,0.03162277660168379,-0.44598635231210265,1.30116957377787
6506190,1999.0,1,204446,234932,0.59,-0.81,9.95,-0.03,-0.01,-0.01,31.859999999999996,4.588702,-17.884995214928054,638.4124887386334,10.000334994388936,0.033166247903554,-0.6451608237728561,1.6763367385643022
6546193,2030.0,1,204589,235259,0.59,-0.81,9.96,-0.03,-0.01,-0.0,31.859999999999996,4.628705,8.594850387711656,692.813434616967,10.010284711235741,0.03162277660168379,0.3095968525389074,1.8191348088325372
6586190,2019.0,1,204586,235210,0.57,-0.8,9.95,-0.03,-0.01,-0.0,31.859999999999996,4.668702,6.755571829563862,605.6073596184253,9.998369867133341,0.03162277660168379,0.2432797996142415,1.590225935569391
6626193,2025.0,1,204401,234052,0.59,-0.82,9.96,-0.03,-0.01,-0.01,31.859999999999996,4.708705,1.1170222919607387,375.2944211394861,10.01109884078666,0.033166247903554,0.03997618013414665,0.9856731535984113
6666190,2017.0,1,203948,232727,0.58,-0.81,9.97,-0.03,-0.01,-0.01,31.859999999999996,4.748702,6.148181006345305,69.91210383490038,10.019650692514187,0.033166247903554,0.2213797077598,0.1840693413657169
6706193,2019.0,1,203684,232308,0.58,-0.82,9.99,-0.03,-0.01,-0.0,31.859999999999996,4.788705,-2.878651689984006,-201.0747012018053,10.04036353923502,0.03162277660168379,-0.10409189577338951,-0.5272490411113006
6746190,1996.0,1,203581,232491,0.57,-0.81,9.95,-0.03,-0.01,-0.0,31.859999999999996,4.828702,-16.604721946114402,-346.2219497943661,9.999174965965942,0.03162277660168379,-0.5989992732291197,-0.9082487952353622
6786193,2000.0,1,203685,232861,0.595,-0.83,9.94,-0.03,-0.01,-0.0,31.859999999999996,4.868705,-17.693310876286855,-339.8911782037187,9.992323303416477,0.03162277660168379,-0.638249450629193,-0.8916310333222655
6826190,1995.0,1,203752,233360,0.595,-0.82,9.97,-0.03,-0.01,-0.0,31.859999999999996,4.908702,-18.97890694154702,-225.62504097527224,10.021343472808425,0.03162277660168379,-0.6846029199946255,-0.5916916916475814
6866193,2000.0,1,203918,233616,0.56,-0.81,9.96,-0.03,-0.01,-0.0,31.859999999999996,4.948705,-15.763240213973681,-79.63421690545228,10.008561335177,0.03162277660168379,-0.5686587963512114,-0.2084776203212486
6906190,1999.0,1,203957,233687,0.58,-0.8,9.96,-0.03,-0.01,-0.0,31.859999999999996,4.988702,-12.091794181720964,33.912381450951244,10.008896043020929,0.03162277660168379,-0.4362810878456826,0.089572990178788
6946193,1991.0,1,204012,233827,0.58,-0.8,9.97,-0.03,-0.01,-0.0,31.859999999999996,5.028705,-27.882437349995083,88.03941904135365,10.018847239078955,0.03162277660168379,-1.00562873454445,0.23165207340892036
6986189,1971.0,1,204039,233999,0.59,-0.8,9.97,-0.03,-0.01,-0.0,31.859999999999996,5.068701,-32.63763722633615,93.62932333382858,10.019431121575716,0.03162277660168379,-1.1770822865198738,0.2463251187588075
7026196,2006.0,1,204079,234135,0.58,-0.8,9.94,-0.03,-0.01,-0.01,31.859999999999996,5.108708,-19.01602059001559,86.54608712273104,9.988993943335835,0.033166247903554,-0.6859410902129507,0.22773219825222388
7066189,1983.0,1,204099,234406,0.58,-0.81,9.96,-0.03,-0.01,-0.01,31.859999999999996,5.148701,-13.180684512435487,109.89828136531719,10.009700295213639,0.033166247903554,-0.47554213254783556,0.2890298139559683
7106193,2005.0,1,204147,234587,0.59,-0.83,9.95,-0.03,-0.01,-0.0,31.859999999999996,5.188705,-23.604765483564307,191.48471248699315,10.001974805007258,0.03162277660168379,-0.8513929390453057,0.5031875778724895
7146877,1976.0,1,204134,234876,0.58,-0.8,9.97,-0.03,-0.01,-0.01,31.859999999999996,5.229389,-18.30311153617418,319.1795543098036,10.018847239078955,0.033166247903554,-0.6602364315876228,0.8383761798553675
7185193,2045.0,1,204298,235041,0.57,-0.81,9.96,-0.03,-0.01,-0.0,31.859999999999996,5.267705,18.99491492762944,430.9074162156607,10.009125835955906,0.03162277660168379,0.6845817222631637,1.1316527546971755
7225189,2022.0,1,204364,235188,0.59,-0.81,9.95,-0.03,-0.01,-0.0,31.859999999999996,5.307701,22.94420276720075,439.47655829882615,10.000334994388936,0.03162277660168379,0.8269772987849363,1.1541460575906037
7265242,2029.0,1,204334,234493,0.58,-0.8,9.97,-0.03,-0.01,-0.0,31.859999999999996,5.347754,9.546257450436462,288.90338974352153,10.018847239078955,0.03162277660168379,0.3439007986443629,0.7589037036808222
7305189,2030.0,1,203860,232763,0.595,-0.8,9.96,-0.03,-0.01,-0.0,31.859999999999996,5.387701,24.055231551045495,3.903238963555933,10.00977647103071,0.03162277660168379,0.8670365678568583,0.010801425302169704
7345193,2031.0,1,203435,231579,0.58,-0.82,9.94,-0.03,-0.01,-0.0,31.859999999999996,5.427705,16.416171459939587,-312.265327206085,9.990615596648686,0.03162277660168379,0.5916025124157216,-0.8191154152886635
7385189,2000.0,1,203269,231338,0.58,-0.81,9.95,-0.03,-0.01,-0.0,31.859999999999996,5.467701,-10.133078186014236,-537.5801252469344,9.999749996874922,0.03162277660168379,-0.36565759703389283,-1.4105484840273566
7425193,2002.0,1,203254,231431,0.595,-0.81,9.95,-0.03,-0.01,-0.0,31.859999999999996,5.507705,-12.41235079364039,-604.5377480925531,10.00063123007743,0.03162277660168379,-0.44783908144259593,-1.5863068128160975
7465216,2013.0,1,203307,231718,0.58,-0.79,9.94,-0.03,-0.01,-0.01,31.859999999999996,5.547728,1.91796807838618,-531.769654725187,9.988198035681911,0.033166247903554,0.06885509239725368,-1.395296470216574
7505193,2024.0,1,203426,232093,0.59,-0.81,9.95,-0.03,-0.01,-0.0,31.859999999999996,5.587705,6.580240472151772,-396.0593375566585,10.000334994388936,0.03162277660168379,0.2369580497861131,-1.0390678956161057
7545189,2020.0,1,203530,232259,0.57,-0.81,9.96,-0.03,-0.01,-0.01,31.859999999999996,5.627701,8.332233094250396,-273.78674624241086,10.009125835955906,0.033166247903554,0.30012791980316056,-0.7181122613993652
7585193,2035.0,1,203537,232286,0.58,-0.83,9.94,-0.03,-0.01,-0.01,31.859999999999996,5.667705,14.601072844416931,-196.824039220291,9.99144133746478,0.033166247903554,0.5261572918340596,-0.5160913981967765
7625190,2028.0,1,203519,232511,0.58,-0.81,9.96,-0.03,-0.01,-0.01,31.859999999999996,5.707702,13.527089155167847,-147.1330594373724,10.009700295213639,0.033166247903554,0.4874337212010808,-0.38565660688619535
7665193,2042.0,1,203696,232781,0.58,-0.82,9.97,-0.03,-0.01,-0.0,31.859999999999996,5.747705,20.017844562619693,-81.90380988534832,10.020464061110143,0.03162277660168379,0.7214644872154025,-0.2144351177983755
7705189,2028.0,1,203846,233035,0.57,-0.82,9.96,-0.03,-0.01,-0.0,31.859999999999996,5.787701,8.605243745235521,34.42131535004554,10.009940059760599,0.03162277660168379,0.30997159558036885,0.0909089003823953
7745193,2007.0,1,203912,233217,0.57,-0.83,9.97,-0.03,-0.01,-0.01,31.859999999999996,5.827705,-16.132094804469425,206.9662074834771,10.020713547447608,0.033166247903554,-0.5819582225262468,0.543825246476809
7785189,2031.0,1,204075,233657,0.58,-0.8,9.97,-0.03,-0.01,-0.0,31.859999999999996,5.867701,5.761209139551692,399.0575285384363,10.018847239078955,0.03162277660168379,0.20742704482202728,1.048049383006922
7825193,2035.0,1,204123,234035,0.58,-0.81,9.96,-0.03,-0.01,-0.01,31.859999999999996,5.907705,10.708729454942752,536.0108944128963,10.009700295213639,0.033166247903554,0.38581490518617984,1.4075408596321721
7865189,2023.0,1,204235,234181,0.57,-0.81,9.96,-0.03,-0.01,-0.0,31.859999999999996,5.947701,-9.106129222881343,533.0239259954918,10.009125835955906,0.03162277660168379,-0.328629911131004,1.3997003098205667
7905193,2035.0,1,204134,233479,0.595,-0.8,9.95,-0.03,-0.01,-0.0,31.859999999999996,5.987705,9.828680974409922,345.4128275756104,9.99982624849052,0.03162277660168379,0.35408386509916884,0.907236394300066
7945189,2036.0,1,203748,231552,0.57,-0.83,9.99,-0.03,-0.01,-0.0,31.859999999999996,6.027701,-3.0444939736249403,12.65977951030482,10.04061253111582,0.03162277660168379,-0.11007150742744955,0.03378663396192031
7985192,2016.0,1,203235,230524,0.58,-0.82,9.93,-0.03,-0.01,-0.0,31.859999999999996,6.067704,-12.048985538050713,-344.00016277771977,9.980666310422366,0.03162277660168379,-0.43473757880223896,-0.902416784534047
8025198,2055.0,1,202962,230595,0.58,-0.82,9.98,-0.03,-0.01,-0.01,31.859999999999996,6.10771,12.321141760022536,-582.1023756777748,10.03041375018997,0.033166247903554,0.4439520653779675,-1.5274157800435315
8065193,2011.0,1,203091,231009,0.58,-0.82,9.94,-0.03,-0.01,-0.01,31.859999999999996,6.147705,-24.120021758471836,-618.6086402307284,9.990615596648686,0.033166247903554,-0.8699710263618996,-1.6232417633365839
8105189,2000.0,1,203212,231518,0.57,-0.8,9.99,-0.03,-0.01,-0.0,31.859999999999996,6.187701,-43.334981071976884,-472.0055971976258,10.03817712535498,0.03162277660168379,-1.562785862969494,-1.238420666890984
8145193,2005.0,1,203479,232011,0.595,-0.81,9.96,-0.03,-0.01,-0.0,31.859999999999996,6.227705,-37.31701748569681,-238.52304018642542,10.010580652489645,0.03162277660168379,-1.3458020853453225,-0.6255478933723281
8185875,1997.0,1,203623,232295,0.56,-0.79,9.97,-0.03,-0.01,-0.01,31.61,6.268387,-49.965344029446584,-27.186750007042516,10.016915692966574,0.033166247903554,-1.8018503207224614,-0.07080727392139174
8226193,2015.0,1,203686,232518,0.595,-0.82,9.96,-0.03,-0.01,-0.0,31.61,6.308705,-29.030539592404878,97.49622086598364,10.011394757974536,0.03162277660168379,-1.0470247247469844,0.2564754111223207
8266189,2006.0,1,203813,232578,0.57,-0.81,9.95,-0.03,-0.01,-0.0,31.61,6.348701,-49.28906149401904,134.35663185013303,9.999174965965942,0.03162277660168379,-1.7774662683475237,0.35323100007113223
8306193,1997.0,1,203774,232749,0.595,-0.82,9.96,-0.03,-0.01,-0.01,31.61,6.388705,-46.24579730206464,128.6534492838816,10.011394757974536,0.033166247903554,-1.6677382928934852,0.33826060844100253
8344189,2091.0,1,203855,232844,0.59,-0.79,9.96,-0.03,-0.01,-0.0,31.61,6.426701,29.93421972018372,140.0632614123835,10.008686227472616,0.03162277660168379,1.0790094459340331,0.3682104397861608
8384193,2086.0,1,203957,233067,0.58,-0.82,9.96,-0.03,-0.01,-0.01,31.61,6.466705,38.26057571878895,211.83620684915672,10.01051447229362,0.033166247903554,1.379224652044614,0.5566085997880158
8424190,2096.0,1,204016,233397,0.58,-0.81,9.94,-0.03,-0.01,-0.0,31.61,6.506702,36.9055672318041,347.1929521743929,9.989799797793747,0.03162277660168379,1.330368447449244,0.9119090769793647
8464193,2107.0,1,204093,233611,0.58,-0.81,9.99,-0.03,-0.01,-0.0,31.61,6.546705,49.744611751712604,498.7285956751244,10.039551782823773,0.03162277660168379,1.7932932127911212,1.3096778495509809
8504190,2086.0,1,204271,234096,0.58,-0.81,9.96,-0.03,-0.01,-0.0,31.61,6.586702,31.52601077075597,582.5863065995646,10.009700295213639,0.03162277660168379,1.136403085890405,1.5297975387178337
8544193,2101.0,1,204345,233893,0.57,-0.82,9.96,-0.03,-0.01,-0.0,31.61,6.626705,37.2232346077632,522.7911379609241,10.009940059760599,0.03162277660168379,1.3418222667147361,1.372840071249198
8584190,2088.0,1,204195,232229,0.58,-0.78,9.94,-0.03,-0.01,-0.0,31.61,6.666702,33.58051140332386,305.2364300957082,9.98741207720999,0.03162277660168379,1.2104801888828796,0.8017766097718608
8624193,2087.0,1,203618,230624,0.59,-0.81,9.99,-0.03,-0.01,-0.0,31.61,6.706705,23.8004899068173,-0.34134220654652636,10.040134461251004,0.03162277660168379,0.8578515996379008,-0.00034025597563540555
8664190,2082.0,1,203393,230400,0.57,-0.82,9.97,-0.03,-0.01,-0.01,31.61,6.746702,23.297737303561817,-275.6204321611036,10.019890218959487,0.033166247903554,0.8397243448779241,-0.7229255381988712
8704193,2059.0,1,203390,230498,0.59,-0.82,9.97,-0.03,-0.01,-0.01,31.61,6.786705,-0.02522550182218328,-423.53789497963743,10.021047849401779,0.033166247903554,-0.0012087219883832707,-1.1111968799637666
8744190,2053.0,1,203463,230809,0.58,-0.79,9.95,-0.03,-0.01,-0.0,31.61,6.826702,-9.329023169624312,-419.42547634150947,9.998149828843333,0.03162277660168379,-0.33666657833253255,-1.1004021146122016
8784193,2053.0,1,203534,231324,0.58,-0.81,9.96,-0.03,-0.01,-0.0,31.61,6.866705,-2.6968094313769275,-309.8122062510371,10.009700295213639,0.03162277660168379,-0.09753538880245499,-0.8126761717633973
8824190,2064.0,1,203650,231530,0.58,-0.79,9.95,-0.03,-0.01,-0.0,31.61,6.906702,1.3509556039742174,-171.17791650935536,9.998149828843333,0.03162277660168379,0.04841088284131193,-0.4487724063326566
8864193,2064.0,1,203754,231833,0.59,-0.84,9.97,-0.03,-0.01,-0.0,31.61,6.946705,10.056061696964939,-65.31501619451792,10.0227042259063,0.03162277660168379,0.3622823075509283,-0.1708908799384985
8904199,2071.0,1,203876,232065,0.59,-0.82,9.95,-0.03,-0.01,-0.01,31.61,6.986711,10.599708479004175,-16.279382326108312,10.001149933882603,0.033166247903554,0.38188404338213744,-0.0421763184959669
8944193,2047.0,1,203888,232245,0.57,-0.79,9.96,-0.03,-0.01,-0.0,31.61,7.026705,-5.752119920538183,-10.176879972625,10.007527167087781,0.03162277660168379,-0.20769770571384064,-0.026157744814661755
8984189,2042.0,1,203928,232434,0.56,-0.81,9.94,-0.03,-0.01,-0.0,31.61,7.066701,-14.263440652261728,-8.074172887098007,9.988658568596685,0.03162277660168379,-0.5145820027791689,-0.020638309273520075
9024258,2058.0,1,204013,232696,0.58,-0.81,9.97,-0.03,-0.01,-0.0,31.61,7.10677,5.355137002621772,34.33236116714106,10.019650692514187,0.03162277660168379,0.19278570228219338,0.09067540286767457
9064190,2059.0,1,204125,233027,0.57,-0.82,9.95,-0.03,-0.01,-0.0,31.61,7.146702,10.067595763758067,142.21556033619748,9.999989999994998,0.03162277660168379,0.3626981800214511,0.37386004988022803
9104197,2071.0,1,204286,233363,0.57,-0.8,9.97,-0.03,-0.01,-0.0,31.61,7.186709,15.502650571009287,298.070645261076,10.018273304317466,0.03162277660168379,0.5586645907123412,0.7829670058243235
9144190,2073.0,1,204339,233733,0.57,-0.79,9.96,-0.03,-0.01,-0.0,31.61,7.226702,35.358777134460034,434.06166841665635,10.007527167087781,0.03162277660168379,1.274597362479812,1.1399324108717
9184193,2062.0,1,204489,234070,0.58,-0.81,9.93,-0.03,-0.01,-0.0,31.61,7.266705,1.8485085333662923,456.58588686043925,9.979849698267003,0.03162277660168379,0.06635065808913787,1.1990566572637722
9224876,2005.0,1,204512,233957,0.58,-0.81,9.94,-0.03,-0.01,-0.0,31.47,7.307388,-21.767412973865213,301.1823340817463,9.989799797793747,0.03162277660168379,-0.7851453317499285,0.7911349365779675
9265193,2047.0,1,204154,232478,0.57,-0.79,9.97,-0.03,-0.01,-0.0,31.47,7.347705,-13.02927812541315,-14.741349250965897,10.017479722964255,0.03162277660168379,-0.4700830217802941,-0.03813910642928244
9305211,1991.0,1,203595,231151,0.58,-0.8,9.95,-0.03,-0.01,-0.0,31.47,7.387723,-32.77821048908055,-386.18402205393215,9.998944944342878,0.03162277660168379,-1.1821507980098358,-1.0131459934448983
9345193,2010.0,1,203354,230869,0.57,-0.82,9.97,-0.03,-0.01,-0.01,31.47,7.427705,-39.991455298492404,-676.0415937797146,10.019890218959487,0.033166247903554,-1.4422316518126772,-1.7739986078029
9385190,1990.0,1,203410,231044,0.595,-0.82,9.95,-0.03,-0.01,-0.0,31.47,7.467702,-39.690487777066025,-793.4075603356168,10.00144614543317,0.03162277660168379,-1.4313799627313135,-2.0820747500235073
9425193,1999.0,1,203504,231521,0.595,-0.79,9.97,-0.03,-0.01,-0.0,31.47,7.507705,-35.588536713859924,-735.378158682399,10.018933326457464,0.03162277660168379,-1.283479958923859,-1.9297522776637
9465189,2000.0,1,203678,232166,0.57,-0.81,9.97,-0.03,-0.01,-0.0,31.47,7.547701,-35.87882753928172,-567.284178990803,10.019076803777882,0.03162277660168379,-1.2939466889076134,-1.4885192156990963
9505193,1984.0,1,203843,232495,0.56,-0.81,9.96,-0.03,-0.01,-0.0,31.47,7.587705,-40.39844943610262,-368.63997013448716,10.008561335177,0.03162277660168379,-1.4569062380216882,-0.9670942802194441
9544190,2036.0,1,203964,232701,0.57,-0.82,9.96,-0.03,-0.01,-0.0,31.47,7.626702,2.4756486082840663,-190.78646263739125,10.009940059760599,0.03162277660168379,0.08896282923377588,-0.5002432493968832
9584193,2047.0,1,204228,233131,0.58,-0.84,9.96,-0.03,-0.01,-0.0,31.47,7.666705,22.868388479623544,-48.11839258110966,10.01217259140093,0.03162277660168379,0.8242437377919966,-0.12575113783519287
9624190,2031.0,1,204344,233397,0.58,-0.84,9.96,-0.03,-0.01,-0.0,31.47,7.706702,7.361372929654885,68.45682881052934,10.01217259140093,0.03162277660168379,0.2651225723897881,0.18024936246949502
9664193,2036.0,1,204454,233633,0.59,-0.82,9.96,-0.03,-0.01,-0.0,31.47,7.746705,7.940210718220022,177.24672050364404,10.01109884078666,0.03162277660168379,0.2859931556350619,0.4658140038125096
9704190,2021.0,1,204680,234171,0.59,-0.84,9.94,-0.03,-0.01,-0.01,31.47,7.786702,6.291163234555837,298.33999308863827,9.992862452770977,0.033166247903554,0.22653507694165645,0.7836740220238737
9744193,2043.0,1,204741,234361,0.57,-0.8,9.99,-0.03,-0.01,-0.0,31.47,7.826705,14.953011629118038,445.1625404647373,10.03817712535498,0.03162277660168379,0.5388468014833045,1.1690712995650283
9784189,2033.0,1,204949,234756,0.595,-0.83,9.96,-0.03,-0.01,-0.0,31.47,7.866701,20.66179488592878,608.1305198881939,10.012218785064578,0.03162277660168379,0.7446827689066486,1.5968490266146507
9824193,2038.0,1,204974,235007,0.58,-0.82,9.96,-0.03,-0.01,-0.01,31.47,7.906705,15.632300563339113,739.7316965209532,10.01051447229362,0.033166247903554,0.563339252614385,1.9422914406163465
9864190,2031.0,1,205025,235074,0.57,-0.8,9.94,-0.03,-0.01,-0.0,31.47,7.946702,16.28557707437517,763.2847031527165,9.988418293203383,0.03162277660168379,0.5868937994582557,2.0041161725530436
9904193,2030.0,1,205145,234911,0.595,-0.81,9.93,-0.03,-0.01,-0.01,31.47,7.986705,14.765487466443147,616.6258783372334,9.980732688535447,0.033166247903554,0.532085427701354,1.6191486534533621
9944190,2027.0,1,204735,233462,0.595,-0.82,9.93,-0.03,-0.01,-0.0,31.47,8.026702,10.030523834938542,307.68723728111854,9.981549228451463,0.03162277660168379,0.3613615140473641,0.8082097798395067
9984193,2010.0,1,204215,232183,0.58,-0.8,9.95,-0.03,-0.01,-0.0,31.47,8.066705,-0.6979006455280717,-66.31298663510636,9.998944944342878,0.03162277660168379,-0.025462706197917035,-0.1735104713959611
10024216,2019.0,1,203843,231758,0.57,-0.83,9.97,-0.03,-0.01,-0.01,31.47,8.106728,2.174666514694086,-364.67396505433993,10.020713547447608,0.033166247903554,0.07811061473828151,-0.9566838385814321
10064193,2019.0,1,203884,231860,0.57,-0.81,9.94,-0.03,-0.01,-0.0,31.47,8.146705,9.928310452430003,-486.75099390627696,9.989224194100359,0.03162277660168379,0.3576761069254249,-1.2771261371974034
10104190,2013.0,1,203971,232308,0.58,-0.82,9.97,-0.03,-0.01,-0.01,31.47,8.186702,-2.4163464544678748,-429.1739171675085,10.020464061110143,0.033166247903554,-0.08742301185949905,-1.125990981048275
10144193,2003.0,1,204048,232806,0.57,-0.81,9.99,-0.03,-0.01,-0.01,31.47,8.226705,-5.602282498490028,-274.6733821055934,10.038979031754176,0.033166247903554,-0.20229516556893207,-0.7204396086218977
10184193,2021.0,1,204282,233092,0.59,-0.81,9.97,-0.03,-0.01,-0.0,31.47,8.266705,6.807721208901953,-128.11608564402457,10.02023452819344,0.03162277660168379,0.24516009835106548,-0.33573859321589977
10224879,2022.0,1,204228,233226,0.58,-0.82,9.94,-0.03,-0.01,-0.0,31.55,8.307391,13.41759348803244,-52.636842446264815,9.990615596648686,0.03162277660168379,0.4834857439247335,-0.1376117022230062
10265190,2020.0,1,204111,233301,0.58,-0.82,9.97,-0.03,-0.01,-0.0,31.55,8.347702,7.01200797233167,-47.38146009067524,10.020464061110143,0.03162277660168379,0.2525258646957893,-0.12381674982312871
10305193,2000.0,1,204248,233462,0.58,-0.82,9.94,-0.03,-0.01,-0.0,31.55,8.387705,-9.617561070837805,-67.87275353983053,9.990615596648686,0.03162277660168379,-0.347070104856985,-0.17760473300238616
10345190,1993.0,1,204256,233560,0.58,-0.8,9.97,-0.03,-0.01,-0.0,31.55,8.427702,-18.123059616348517,-61.12602645251758,10.018847239078955,0.03162277660168379,-0.6537444770963519,-0.1598951216502346
10385193,2003.0,1,204339,233795,0.59,-0.82,9.95,-0.03,-0.01,-0.0,31.55,8.467705,-8.924115501044758,7.800493939820496,10.001149933882603,0.03162277660168379,-0.32206722187951414,0.021031403494065497
10425190,2007.0,1,204281,233813,0.59,-0.83,9.96,-0.03,-0.01,-0.0,31.55,8.507702,-1.9553568847941887,139.86451257568373,10.011922892232041,0.03162277660168379,-0.07080156561127272,0.3676887402110789
10465193,2003.0,1,204473,234014,0.57,-0.82,9.98,-0.03,-0.01,-0.0,31.55,8.547705,-11.397688570972067,292.5418770996789,10.029840477295739,0.03162277660168379,-0.41125440642245287,0.7684544378595375
10505190,2001.0,1,204458,234238,0.59,-0.8,9.99,-0.03,-0.01,-0.01,31.55,8.587702,-7.004970351925609,385.8809805333176,10.039332647143434,0.033166247903554,-0.2528704980551376,1.013462013292141
10544198,2028.0,1,204538,234241,0.59,-0.82,9.96,-0.03,-0.01,-0.0,31.55,8.62671,12.665851581727795,338.1929109714194,10.01109884078666,0.03162277660168379,0.45638092743826386,0.8882846988482654
10584190,2021.0,1,204466,233030,0.58,-0.84,9.93,-0.03,-0.01,-0.0,31.55,8.666702,11.531838121617714,122.2349513555581,9.982329387472646,0.03162277660168379,0.41549292256360437,0.3214125720073144
10624193,2016.0,1,203800,231203,0.58,-0.81,9.95,-0.03,-0.01,-0.0,31.55,8.706705,1.630093494482956,-198.75577285194575,9.999749996874922,0.03162277660168379,0.05847548245083998,-0.5211620422897942
10664190,2010.0,1,203494,230610,0.59,-0.8,9.97,-0.03,-0.01,-0.0,31.55,8.746702,-2.481411853036163,-494.08941831578596,10.019431121575716,0.03162277660168379,-0.08976901076287502,-1.2963889060255565
10704193,2015.0,1,203352,230667,0.57,-0.8,9.98,-0.03,-0.01,-0.01,31.55,8.786705,1.8287228425792887,-640.6189448418413,10.028225166997398,0.033166247903554,0.06563726495069225,-1.6810170276033536
10744214,2016.0,1,203468,230880,0.59,-0.8,9.96,-0.03,-0.01,-0.0,31.55,8.826726,0.9311274755321488,-594.8206922463617,10.0094805060003,0.03162277660168379,0.03327355408280483,-1.560800329406267
10784193,1996.0,1,203652,231510,0.595,-0.79,9.96,-0.03,-0.01,-0.01,31.55,8.866705,-16.973198300029484,-408.4577713872128,10.008982215989796,0.033166247903554,-0.612285061700814,-1.0716127787383802
10824190,2014.0,1,203805,231881,0.58,-0.81,9.97,-0.03,-0.01,-0.0,31.55,8.906702,-3.1672284222655596,-183.2279559324808,10.019650692514187,0.03162277660168379,-0.11449682239136465,-0.4804027823949924
10864193,2021.0,1,203884,231959,0.57,-0.81,9.97,-0.03,-0.01,-0.0,31.55,8.946705,8.530928129360582,-5.816480610029519,10.019076803777882,0.03162277660168379,0.30729207071488546,-0.014712050176005404
10904190,1998.0,1,203939,232057,0.595,-0.81,9.96,-0.03,-0.01,-0.0,31.55,8.986702,-22.49640709183059,91.74796250844702,10.010580652489645,0.03162277660168379,-0.8114299536679727,0.24138669919633185
10944210,1990.0,1,204054,232258,0.58,-0.81,9.96,-0.03,-0.01,-0.01,31.55,9.026722,-20.57888888675813,132.1666787042394,10.009700295213639,0.033166247903554,-0.7422918909604627,0.3474825506983795
10984193,2025.0,1,204020,232354,0.57,-0.79,9.95,-0.03,-0.01,-0.0,31.55,9.066705,0.7963438186888063,167.58983690661663,9.997574705897424,0.03162277660168379,0.028413792702635624,0.44046546767594036
11024216,2006.0,1,204139,232578,0.59,-0.82,9.96,-0.03,-0.01,-0.0,31.55,9.106728,-4.1894715159591716,248.13331435053075,10.01109884078666,0.03162277660168379,-0.15135483340119346,0.6518855627861758
11064190,2011.0,1,204197,232823,0.59,-0.81,9.95,-0.03,-0.01,-0.0,31.55,9.146702,-12.984868673987052,393.93257982087516,10.000334994388936,0.03162277660168379,-0.46848179399044493,1.0345968083269133
11104193,2010.0,1,204348,233118,0.56,-0.81,9.96,-0.03,-0.01,-0.0,31.55,9.186705,-5.246732423560308,576.0873000540754,10.008561335177,0.03162277660168379,-0.18947544718966283,1.512738173694438
11144190,2026.0,1,204444,233504,0.58,-0.82,9.99,-0.03,-0.01,-0.0,31.55,9.226702,8.169303902060978,716.8194826236947,10.04036353923502,0.03162277660168379,0.29425334261443953,1.8821487376306505
11184193,2011.0,1,204374,233481,0.58,-0.81,9.98,-0.03,-0.01,-0.0,31.55,9.266705,-13.49585571496229,720.1827479479318,10.029601188482022,0.03162277660168379,-0.4869059497498089,1.8909770362998546
11224877,1995.0,1,204485,232960,0.595,-0.81,9.96,-0.03,-0.01,-0.01,31.49,9.307389,-15.240166737980427,528.2946877841979,10.010580652489645,0.033166247903554,-0.5497988519250305,1.3872864431219634
11263193,2055.0,1,203943,230989,0.58,-0.82,9.97,-0.03,-0.01,-0.0,31.49,9.345705,23.843454974640853,170.63128193167387,10.020464061110143,0.03162277660168379,0.8594007487127617,0.44844901416383465
11303190,2039.0,1,203321,229739,0.595,-0.8,9.96,-0.03,-0.01,-0.0,31.49,9.385702,30.844534538987286,-235.82582545799173,10.00977647103071,0.03162277660168379,1.1118317695289417,-0.6184679234912752
11343193,2057.0,1,203144,229669,0.59,-0.8,9.96,-0.03,-0.01,-0.0,31.49,9.425705,26.714573607659112,-547.0825945047445,10.0094805060003,0.03162277660168379,0.9629218415322249,-1.4354916950486
11383190,2041.0,1,202970,229743,0.58,-0.82,9.95,-0.03,-0.01,-0.01,31.49,9.465702,28.17649233707858,-673.4858360584528,10.00056498403965,0.033166247903554,1.0156328032954627,-1.7672899510915712
11423193,2058.0,1,203173,230080,0.59,-0.81,9.96,-0.03,-0.01,-0.0,31.49,9.505705,33.368578219555815,-621.822281617962,10.010284711235741,0.03162277660168379,1.2028387231015398,-1.6316773113077057
11463190,2064.0,1,203252,230576,0.58,-0.81,9.97,-0.03,-0.01,-0.0,31.49,9.545702,45.520661274875366,-471.8778622648758,10.019650692514187,0.03162277660168379,1.640994396452137,-1.2380853730535692
11503193,2063.0,1,203350,230942,0.58,-0.8,9.98,-0.03,-0.01,-0.01,31.49,9.585705,42.00182430254131,-314.68013791089595,10.028798532227079,0.033166247903554,1.5141191623045982,-0.825454097514544
11543190,2043.0,1,203447,231125,0.58,-0.83,9.95,-0.03,-0.01,-0.0,31.49,9.625702,23.576153681874327,-201.99508376916273,10.001389903408425,0.03162277660168379,0.849762929633807,-0.5296649706949718
11584193,2009.0,1,203528,231181,0.57,-0.8,9.97,-0.03,-0.01,-0.0,31.49,9.666705,-13.332694176101807,-134.9882838542996,10.018273304317466,0.03162277660168379,-0.4810229950663285,-0.35377755608839884
11624190,1981.0,1,203598,231634,0.57,-0.83,9.97,-0.03,-0.01,-0.01,31.49,9.706702,-35.141703210448355,-83.95632904512264,10.020713547447608,0.033166247903554,-1.267368923994979,-0.21982281410534513
11664193,1994.0,1,203760,232112,0.57,-0.82,9.97,-0.03,-0.01,-0.0,31.49,9.746705,-31.171243423431118,-14.770540022808364,10.019890218959487,0.03162277660168379,-1.1242099714456493,-0.038215729837597204
11704190,1982.0,1,203786,232402,0.58,-0.83,9.96,-0.03,-0.01,-0.0,31.49,9.786702,-31.758563314808974,92.83659359789952,10.011338571839433,0.03162277660168379,-1.1453863855063,0.24424426750324132
11744192,2007.0,1,203982,232796,0.57,-0.82,9.97,-0.03,-0.01,-0.01,31.49,9.826704,-17.465126816675646,234.3671474834355,10.019890218959487,0.033166247903554,-0.6300220430455149,0.615750491384878
11784193,2017.0,1,204111,233088,0.59,-0.81,9.97,-0.03,-0.01,-0.01,31.49,9.866705,1.2588603915373182,373.7148476317765,10.02023452819344,0.033166247903554,0.04509029659828162,0.9815269012657365
11824193,2023.0,1,204062,233156,0.58,-0.82,9.96,-0.03,-0.01,-0.0,31.49,9.906705,3.835877742352674,447.0201973447776,10.01051447229362,0.03162277660168379,0.13800726955201711,1.1739474981936981
11864190,2020.0,1,204145,233278,0.56,-0.83,9.94,-0.03,-0.01,-0.0,31.49,9.946702,-0.6877233892485541,388.97366259978276,9.990300295786907,0.03162277660168379,-0.025095754905886357,1.0215800528577048
11904193,1994.0,1,204149,232620,0.58,-0.78,9.98,-0.03,-0.01,-0.0,31.49,9.986705,-18.510230059128364,178.52911216692846,10.027222945561748,0.03162277660168379,-0.6677042998926084,0.46918017790908945
11944190,1997.0,1,203749,231073,0.595,-0.8,9.97,-0.03,-0.01,-0.0,31.49,10.026702,-27.29626129414278,-126.38788302649033,10.019726792682523,0.03162277660168379,-0.9844935626332002,-0.3312022015257934
11984193,1995.0,1,203205,230187,0.57,-0.81,9.97,-0.03,-0.01,-0.0,31.49,10.066705,-14.031526739533149,-403.60033230757324,10.019076803777882,0.03162277660168379,-0.506220111560323,-1.0588623951592173
12024216,1993.0,1,203276,230412,0.57,-0.83,9.95,-0.03,-0.01,-0.0,31.49,10.106728,-29.39712062728177,-534.6613024487893,10.000814966791456,0.03162277660168379,-1.060242175569437,-1.4028868109387636
12064193,1963.0,1,203425,230818,0.58,-0.83,9.95,-0.03,-0.01,-0.0,31.49,10.146705,-48.77123295094436,-478.7943213288411,10.001389903408425,0.03162277660168379,-1.7587954352946074,-1.2562405170768434
12104190,1993.0,1,203633,231573,0.58,-0.83,9.96,-0.03,-0.01,-0.0,31.49,10.186702,-20.731407998106803,-293.8710321079296,10.011338571839433,0.03162277660168379,-0.7477911221315795,-0.7708318826854706
12144193,2011.0,1,203812,232108,0.58,-0.81,9.95,-0.03,-0.01,-0.0,31.49,10.226705,-8.383975734211454,-89.79644933496515,9.999749996874922,0.03162277660168379,-0.30259193503668097,-0.23515265615237502
12184190,1984.0,1,204021,232620,0.58,-0.82,9.98,-0.03,-0.01,-0.0,31.49,10.266702,-18.337495706272623,45.21559293822836,10.03041375018997,0.03162277660168379,-0.6614761876963906,0.11924300348750444
12224193,2011.0,1,203970,232766,0.58,-0.82,9.95,-0.03,-0.01,-0.01,31.49,10.306705,-14.630268057875291,90.00716650562636,10.00056498403965,0.033166247903554,-0.5278083367482825,0.23681725089134473
12264879,1984.0,1,204025,232839,0.58,-0.81,9.98,-0.03,-0.01,-0.0,31.53,10.347391,-11.063320228258364,82.66812481411307,10.029601188482022,0.03162277660168379,-0.3991984168705453,0.2175528617480006
12303193,2031.0,1,204029,233200,0.59,-0.81,9.96,-0.03,-0.01,-0.0,31.53,10.385705,6.249399598690169,78.09529386715198,10.010284711235741,0.03162277660168379,0.22502924671395072,0.20554955143149783
12343190,2017.0,1,204132,233460,0.58,-0.82,9.97,-0.03,-0.01,-0.0,31.53,10.425702,22.020877182534825,109.8662676267961,10.020464061110143,0.03162277660168379,0.7936858588376068,0.28894578048910347
12383193,2037.0,1,204262,233715,0.57,-0.82,9.99,-0.03,-0.01,-0.0,31.53,10.465705,20.07017066154656,181.1760486904339,10.03979083447459,0.03162277660168379,0.7233511577561436,0.4761281715804573
12423190,2021.0,1,204319,233949,0.59,-0.82,9.97,-0.03,-0.01,-0.0,31.53,10.505702,22.10402639605446,278.59235356167795,10.021047849401779,0.03162277660168379,0.7966838880209508,0.7318380700698516
12463193,2031.0,1,204421,234286,0.58,-0.81,9.96,-0.03,-0.01,-0.01,31.53,10.545705,23.659915013777887,384.60748775898423,10.009700295213639,0.033166247903554,0.8527830293659991,1.010119198057236
12503193,2015.0,1,204502,234648,0.58,-0.8,9.96,-0.03,-0.01,-0.0,31.53,10.585705,14.01010938681449,474.97285571241935,10.008896043020929,0.03162277660168379,0.5048495052996311,1.2473209590650138
12543193,2013.0,1,204572,234849,0.58,-0.81,9.96,-0.03,-0.01,-0.0,31.53,10.625705,11.719373676758618,510.9228704515581,10.009700295213639,0.03162277660168379,0.4222547071124658,1.3416868317162869
12583189,2015.0,1,204484,234996,0.56,-0.81,9.98,-0.03,-0.01,-0.01,31.53,10.665701,17.338747452688423,447.5115184874445,10.028464488644312,0.033166247903554,0.6248669250666055,1.1752371763403195
12623193,2006.0,1,204494,234401,0.57,-0.83,9.95,-0.03,-0.01,-0.0,31.53,10.705705,5.851323657148063,263.9618025540805,10.000814966791456,0.03162277660168379,0.2106762151047154,0.6934340604131377
12663190,1986.0,1,204174,232974,0.57,-0.82,9.99,-0.03,-0.01,-0.0,31.53,10.745702,-4.263020892994894,-6.072425505461349,10.03979083447459,0.03162277660168379,-0.15400673074857843,-0.015383884765874675
12703193,2003.0,1,203700,232145,0.58,-0.82,9.98,-0.03,-0.01,-0.0,31.53,10.785705,2.521308693680786,-277.06592365763714,10.03041375018997,0.03162277660168379,0.09060914989922655,-0.7267198361280979
12743190,2007.0,1,203589,232138,0.57,-0.81,9.95,-0.03,-0.01,-0.0,31.53,10.825702,23.12215368865472,-455.6449470190961,9.999174965965942,0.03162277660168379,0.8333934996500952,-1.1954752872453303
12783193,2032.0,1,203684,232377,0.57,-0.8,9.96,-0.03,-0.01,-0.0,31.53,10.865705,34.54511285948728,-495.4487407911447,10.0083215376006,0.03162277660168379,1.2452598722191648,-1.2999570172636878
12823189,1999.0,1,203732,232773,0.57,-0.79,9.96,-0.03,-0.01,-0.0,31.53,10.905701,16.916156854376638,-419.45416121760974,10.007527167087781,0.03162277660168379,0.6096299926565789,-1.1004774100852284
12863193,2009.0,1,203830,233162,0.58,-0.84,9.96,-0.03,-0.01,-0.0,31.53,10.945705,18.458661648113424,-295.21193039404136,10.01217259140093,0.03162277660168379,0.6652465666603593,-0.7743516319212832
12903190,2014.0,1,203916,233325,0.59,-0.79,9.98,-0.03,-0.01,-0.01,31.53,10.985702,31.321553888493295,-187.71469027936988,10.028589133073506,0.033166247903554,1.1290311857387063,-0.49218009611992053
12943192,2013.0,1,203970,233369,0.58,-0.81,9.96,-0.03,-0.01,-0.0,31.53,11.025704,28.240147093872935,-126.18943480859654,10.009700295213639,0.03162277660168379,1.0179279400796857,-0.33068129105069277
12983190,2011.0,1,203941,233397,0.58,-0.81,9.95,-0.03,-0.01,-0.0,31.53,11.065702,30.850782965695544,-101.32319019507813,9.999749996874922,0.03162277660168379,1.1120570628880535,-0.2654094159334895
13023203,2020.0,1,204009,233489,0.58,-0.83,9.97,-0.03,-0.01,-0.0,31.53,11.105715,35.02135802139038,-83.31895237560657,10.021287342452565,0.03162277660168379,1.262431374310098,-0.21814975204784992
13063190,2011.0,1,204037,233764,0.58,-0.82,9.97,-0.03,-0.01,-0.0,31.53,11.145702,38.23087493740468,-41.60698266552644,10.020464061110143,0.03162277660168379,1.3781537602635734,-0.10865921497138369
13103193,2030.0,1,204172,233836,0.57,-0.81,9.95,-0.03,-0.01,-0.0,31.53,11.185705,40.20860396116684,43.23195706070898,9.999174965965942,0.03162277660168379,1.4494627850757595,0.11403612020907564
13143190,2023.0,1,204239,234015,0.56,-0.81,9.95,-0.03,-0.01,-0.0,31.53,11.225702,57.39973929777012,170.98759937038818,9.998609903381569,0.03162277660168379,2.069306596608414,0.44938431853823135
13183193,2031.0,1,204203,234216,0.57,-0.81,9.96,-0.03,-0.01,-0.0,31.53,11.265705,38.33715675821834,312.3015613825544,10.009125835955906,0.03162277660168379,1.381985859052855,0.8203220063208421
13223190,1920.5,1,204357,234339,0.595,-0.82,9.98,-0.03,-0.01,-0.0,31.53,11.305702,-44.804468400190714,407.666698168648,10.031292289630485,0.03162277660168379,-1.6157697182346908,1.0706477549645639
13263193,1920.5,1,204429,234483,0.57,-0.82,9.97,-0.03,-0.01,-0.0,31.53,11.345705,-69.14850499351948,391.302739492246,10.019890218959487,0.03162277660168379,-2.493518635606706,1.02769369078036
13303877,1920.5,1,204382,233595,0.57,-0.81,9.95,-0.03,-0.01,-0.01,31.57,11.386389,-51.87071747995039,236.70063356950007,9.999174965965942,0.033166247903554,-1.8705504919926368,0.6218757030830906
13342193,1920.5,1,203840,232174,0.58,-0.82,9.97,-0.03,-0.01,-0.01,31.57,11.424705,-63.69875758423089,-10.375088375829943,10.020464061110143,0.033166247903554,-2.297022468255196,-0.026678025795656365
13382193,1920.5,1,203548,231351,0.58,-0.81,9.96,-0.03,-0.01,-0.01,31.57,11.464705,-60.797174584964885,-247.7731959803133,10.009700295213639,0.033166247903554,-2.1924029518283796,-0.649828802016856
13422193,1920.5,1,203523,231111,0.57,-0.8,9.98,-0.03,-0.01,-0.0,31.57,11.504705,-61.5203607250165,-377.94829157897584,10.028225166997398,0.03162277660168379,-2.2184781612150886,-0.9915278689787675
13462190,1920.5,1,203503,231165,0.58,-0.81,9.95,-0.03,-0.01,-0.0,31.57,11.544702,-67.68144574915533,-367.3367382968632,9.999749996874922,0.03162277660168379,-2.4406223273661025,-0.9636734023556468
13502193,1920.5,1,203593,231595,0.58,-0.81,9.95,-0.03,-0.01,-0.0,31.57,11.584705,-64.01333292071206,-258.37778877348694,9.999749996874922,0.03162277660168379,-2.308364800902854,-0.677664997921103
13542190,1920.5,1,203723,232042,0.58,-0.79,9.95,-0.03,-0.01,-0.0,31.57,11.624702,-73.12699682312835,-130.6386668755994,9.998149828843333,0.03162277660168379,-2.636967191593907,-0.3423601643328685
13582193,1920.5,1,203708,232439,0.59,-0.8,9.95,-0.03,-0.01,-0.01,31.57,11.664705,-69.39734213555778,-47.04313453618057,9.99952998895448,0.033166247903554,-2.502490711013704,-0.12292867268542013
13622190,1950.0,1,203684,232801,0.595,-0.81,9.95,-0.03,-0.01,-0.01,31.57,11.704702,-49.18826367500675,-24.724690907575393,10.00063123007743,0.033166247903554,-1.7738319008024248,-0.06434456849203124
13662193,1972.0,1,203635,232880,0.5549999999999999,-0.82,9.97,-0.03,-0.01,-0.0,31.57,11.744705,-24.842245979035162,-42.11526017577162,10.01904810847817,0.03162277660168379,-0.8960115527663428,-0.10999340220750418
13702193,2009.0,1,203621,232966,0.57,-0.81,9.96,-0.03,-0.01,-0.0,31.57,11.784705,3.6193879523914276,-63.91055261618557,10.009125835955906,0.03162277660168379,0.1302015107152656,-0.16720427696662338
13742193,2003.0,1,203611,233134,0.57,-0.8,9.95,-0.03,-0.01,-0.0,31.57,11.824705,-1.5304201811122187,-58.95137206081228,9.998369867133341,0.03162277660168379,-0.0554800419938339,-0.1541868302662876
13782190,2000.0,1,203694,233264,0.56,-0.82,9.97,-0.03,-0.01,-0.0,31.57,11.864702,-12.660468997956066,-3.7353403717672977,10.01932632465876,0.03162277660168379,-0.45678523482120426,-0.009249225859566819
13822193,2033.0,1,203702,233492,0.58,-0.81,9.95,-0.03,-0.01,-0.01,31.57,11.904705,20.973523849620793,115.63755892759346,9.999749996874922,0.033166247903554,0.7559224726979724,0.3040949520228643
13862193,2066.0,1,203820,233768,0.58,-0.81,9.96,-0.03,-0.01,-0.0,31.57,11.944705,45.03422779575348,290.2712047996527,10.009700295213639,0.03162277660168379,1.6234555442557947,0.7624941072546166
13902193,2061.0,1,203946,233937,0.57,-0.8,9.96,-0.03,-0.01,-0.0,31.57,11.984705,41.393261458945894,471.7034339398949,10.0083215376006,0.03162277660168379,1.4921768120673704,1.2387389921070573
13942189,2079.0,1,204064,234047,0.59,-0.81,9.96,-0.03,-0.01,-0.01,31.57,12.024701,50.31563417615427,576.5343952333053,10.010284711235741,0.033166247903554,1.8138820051603444,1.5139117622743692
13982193,2083.0,1,204092,234082,0.58,-0.8,9.93,-0.03,-0.01,-0.0,31.57,12.064705,54.43961750496424,526.9446438085821,9.97904304029199,0.03162277660168379,1.9625764046386611,1.3837426871930434
14022211,2081.0,1,203920,232767,0.5549999999999999,-0.8,9.96,-0.03,-0.01,-0.0,31.57,12.104723,46.7323356236102,306.48235173044367,10.00747845363656,0.03162277660168379,1.684682543392439,0.8050470530017189
14062192,2096.0,1,203324,230941,0.58,-0.81,9.96,-0.03,-0.01,-0.0,31.57,12.144704,56.9260131882005,-14.786532474321517,10.009700295213639,0.03162277660168379,2.052225921502974,-0.0382577087256122
14102190,2108.5,1,202959,230449,0.56,-0.82,9.96,-0.03,-0.01,-0.0,31.57,12.184702,70.64674646896566,-314.29274464126536,10.009375604901637,0.03162277660168379,2.5469408689017197,-0.8244372216046679
14142193,2096.0,1,202971,230340,0.58,-0.82,9.94,-0.03,-0.01,-0.0,31.57,12.224705,46.265673615864955,-488.40994472397824,9.990615596648686,0.03162277660168379,1.6678565716392875,-1.2814807485302186
14182190,2051.0,1,202935,230458,0.56,-0.8,9.94,-0.03,-0.01,-0.0,31.57,12.264702,10.192350095970582,-506.43095479444634,9.987852622060458,0.03162277660168379,0.3671963239351442,-1.3287844382142646
14222197,2080.0,1,202951,230825,0.57,-0.81,9.94,-0.03,-0.01,-0.01,31.57,12.304709,21.4131152274262,-410.49383225677377,9.989224194100359,0.033166247903554,0.7717723854466456,-1.0769572733685329
14262193,2092.0,1,203075,231309,0.59,-0.81,9.96,-0.03,-0.01,-0.0,31.57,12.344705,47.49349964996862,-272.43640316840873,10.010284711235741,0.03162277660168379,1.7121270839688247,-0.7145677203614422
14302193,2098.0,1,203179,231584,0.59,-0.82,9.97,-0.03,-0.01,-0.0,31.57,12.384705,33.74723230084901,-147.11071624929187,10.021047849401779,0.03162277660168379,1.216491479851202,-0.3855979578298228
14342877,2064.0,1,203293,231667,0.57,-0.82,9.95,-0.03,-0.01,-0.0,31.49,12.425389,14.415672662286674,-52.79580810967838,9.999989999994998,0.03162277660168379,0.519472500323764,-0.13802897419517254
14383193,2074.0,1,203301,231871,0.57,-0.83,9.98,-0.03,-0.01,-0.0,31.49,12.465705,7.686837419324791,18.19656490053568,10.030662989055111,0.03162277660168379,0.27685752449420126,0.048320246502087834
14423190,2042.0,1,203377,232168,0.59,-0.8,9.96,-0.03,-0.01,-0.01,31.49,12.505702,-13.696964239875808,76.95238976497603,10.0094805060003,0.033166247903554,-0.49415712148299207,0.20254952086847458
14463193,2047.0,1,203431,232444,0.57,-0.81,9.96,-0.03,-0.01,-0.0,31.49,12.545705,-18.61894450449364,125.2111301945537,10.009125835955906,0.03162277660168379,-0.6716241094260947,0.32922480005077914
14503190,2053.0,1,203515,232563,0.59,-0.82,9.97,-0.03,-0.01,-0.0,31.49,12.585702,-8.314060390771669,161.1174520225072,10.021047849401779,0.03162277660168379,-0.3000710664544845,0.4234759823542849
14543193,2035.0,1,203500,232929,0.57,-0.81,9.96,-0.03,-0.01,-0.01,31.49,12.625705,-28.881566466812583,193.06453648155826,10.009125835955906,0.033166247903554,-1.0416533476869452,0.5073344877128421
14583193,2025.0,1,203529,233099,0.58,-0.81,9.95,-0.03,-0.01,-0.0,31.49,12.665705,-39.972625018309394,242.1333141025632,9.999749996874922,0.03162277660168379,-1.441552706972076,0.6361360488175237
14623193,2034.0,1,203702,233183,0.57,-0.8,9.99,-0.03,-0.01,-0.01,31.49,12.705705,-28.06711219956333,323.5991564824714,10.03817712535498,0.033166247903554,-1.012287373453939,0.8499772770683043
14663189,2036.0,1,203663,233390,0.59,-0.82,9.96,-0.03,-0.01,-0.0,31.49,12.745701,-30.165135453267478,419.5726120759649,10.01109884078666,0.03162277660168379,-1.0879337286711663,1.1018998132384572
14703193,2035.0,1,203702,233577,0.58,-0.83,9.97,-0.03,-0.01,-0.0,31.49,12.785705,-25.885100536838657,469.70620083886956,10.021287342452565,0.03162277660168379,-0.9336127310088752,1.2334964172198466
14743190,2042.0,1,203812,233670,0.57,-0.82,9.94,-0.03,-0.01,-0.01,31.49,12.825702,-21.833828345966445,399.65430655907414,9.9900400399598,0.033166247903554,-0.787540005317528,1.0496158769042188
14783193,2032.0,1,203705,232931,0.57,-0.79,9.98,-0.03,-0.01,-0.0,31.49,12.865705,-29.945077920005374,176.64648273075696,10.027432373244908,0.03162277660168379,-1.0799993312330152,0.46423842834619194
14823190,2018.0,1,203152,231304,0.57,-0.8,9.95,-0.03,-0.01,-0.0,31.49,12.905702,-38.86434129806601,-150.22895193933377,9.998369867133341,0.03162277660168379,-1.4015924139510227,-0.3937830735845263
14863193,2021.0,1,202842,230357,0.58,-0.82,9.95,-0.03,-0.01,-0.0,31.49,12.945705,-44.23804315153488,-465.76812863427506,10.00056498403965,0.03162277660168379,-1.595346681698668,-1.2220478178563865
14903189,2017.0,1,202667,230252,0.58,-0.81,9.94,-0.03,-0.01,-0.0,31.49,12.985701,-30.61733582960119,-656.5176268534198,9.989799797793747,0.03162277660168379,-1.1042382716437522,-1.7227497782827108
14943193,2026.0,1,202819,230256,0.59,-0.81,9.96,-0.03,-0.01,-0.0,31.49,13.025705,-40.43172223820277,-679.0291351849818,10.010284711235741,0.03162277660168379,-1.4581059226306632,-1.7818406616611677
14983190,2006.0,1,202910,230660,0.59,-0.83,9.95,-0.03,-0.01,-0.0,31.49,13.065702,-35.90824218292107,-575.7706686123164,10.001974805007258,0.03162277660168379,-1.2950072637021979,-1.5107955625849356
15021203,2099.0,1,203047,231141,0.59,-0.82,9.94,-0.03,-0.01,-0.0,31.49,13.103715,38.447452645150676,-432.5019045592139,9.991201128993449,0.03162277660168379,1.3859626890651782,-1.1347266780061074
15061193,2108.5,1,203155,231564,0.59,-0.81,9.96,-0.03,-0.01,-0.0,31.49,13.143705,66.1935199144332,-317.18144977893996,10.010284711235741,0.03162277660168379,2.3863752711600394,-0.8320198382774813
15101193,2090.0,1,203229,231885,0.57,-0.8,9.95,-0.03,-0.01,-0.0,31.49,13.183705,40.70278731131038,-246.25278178441616,9.998369867133341,0.03162277660168379,1.467281066727975,-0.6458378380790578
15141190,2079.0,1,203372,232018,0.56,-0.8,9.96,-0.03,-0.01,-0.0,31.49,13.223702,35.507198504904615,-193.87554979985566,10.00775699145418,0.03162277660168379,1.2799488454486758,-0.508351852631041
15181192,2072.0,1,203389,232363,0.59,-0.81,9.95,-0.03,-0.01,-0.0,31.49,13.263704,31.540835901084623,-125.93688042070497,10.000334994388936,0.03162277660168379,1.1369376209929132,-0.33001835626810005
15221190,2055.0,1,203556,232682,0.56,-0.8,9.95,-0.03,-0.01,-0.0,31.49,13.303702,16.681504221793165,-28.419432700850507,9.997804759045856,0.03162277660168379,0.601169354117074,-0.07404296600517474
15261193,2045.0,1,203717,232973,0.56,-0.78,9.96,-0.03,-0.01,-0.0,31.49,13.343705,6.380247647485482,88.83644006519347,10.006178091559235,0.03162277660168379,0.22974710575634963,0.23374418894717
15301190,2064.0,1,203831,233420,0.57,-0.81,9.97,-0.03,-0.01,-0.01,31.49,13.383702,37.23121851859508,209.53381282270794,10.019076803777882,0.033166247903554,1.3421101347132172,0.5505650022243025
15341193,2086.0,1,204026,233634,0.58,-0.8,9.97,-0.03,-0.01,-0.0,31.49,13.423705,46.21966824472521,329.0570959245818,10.018847239078955,0.03162277660168379,1.6661978013463496,0.8643039253901427
15381876,2017.0,1,204134,233904,0.58,-0.82,9.96,-0.03,-0.01,-0.0,31.39,13.464388,1.0308899368311402,453.3849888307479,10.01051447229362,0.03162277660168379,0.03687059075598966,1.1906545595725377
15422193,2027.0,1,204206,234332,0.59,-0.81,9.97,-0.03,-0.01,-0.01,31.39,13.504705,-9.576139199685828,577.4228201319308,10.02023452819344,0.033166247903554,-0.3455765973024846,1.5162438055698242
15462193,2000.0,1,204294,234622,0.59,-0.81,9.97,-0.03,-0.01,-0.0,31.39,13.544705,-11.669251487997059,664.4074910686095,10.02023452819344,0.03162277660168379,-0.4210458826841339,1.744571511129484
15502192,2004.0,1,204435,234735,0.59,-0.8,9.97,-0.03,-0.01,-0.0,31.39,13.584704,-22.933539976143248,653.882055362166,10.019431121575716,0.03162277660168379,-0.8271912229415445,1.716943096157179
15542190,2006.0,1,204388,234154,0.59,-0.8,9.93,-0.03,-0.01,-0.0,31.39,13.624702,-6.616507506766552,502.7656409379533,9.979629251630543,0.03162277660168379,-0.2388640763809665,1.3202747659062
15582193,2010.0,1,203989,232853,0.57,-0.83,9.94,-0.03,-0.01,-0.01,31.39,13.664705,-4.9286988402847225,228.7954031900611,9.99086582834541,0.033166247903554,-0.17800842394814392,0.6011251145596049
15622193,2002.0,1,203544,232017,0.57,-0.79,9.94,-0.03,-0.01,-0.0,31.39,13.704705,-11.89963407160976,-84.82131664197293,9.987622339676244,0.03162277660168379,-0.42935256027937024,-0.22209333638472653
15662257,2006.0,1,203479,231737,0.59,-0.81,9.98,-0.03,-0.01,-0.01,31.39,13.744769,0.499166902472712,-333.33477240987435,10.03018444496411,0.033166247903554,0.01769877773473531,-0.8744209999278033
15702192,2000.0,1,203361,231874,0.58,-0.81,9.95,-0.03,-0.01,-0.01,31.39,13.784704,-11.753421125929771,-449.411211285711,9.999749996874922,0.033166247903554,-0.4240807043041145,-1.179112236586609
15742193,1968.0,1,203420,232002,0.57,-0.8,9.96,-0.03,-0.01,-0.0,31.39,13.824705,-33.28297348561588,-432.9540355489597,10.0083215376006,0.03162277660168379,-1.20035053953749,-1.1359134851801693
15782190,1982.0,1,203440,232484,0.56,-0.83,9.97,-0.03,-0.01,-0.0,31.39,13.864702,-23.356666835341272,-336.35018141456294,10.020149699480543,0.03162277660168379,-0.8424474907814419,-0.8823362039741081
15822193,1977.0,1,203639,232694,0.58,-0.82,9.95,-0.03,-0.01,-0.01,31.39,13.904705,-24.38806358538249,-224.4622953260458,10.00056498403965,0.033166247903554,-0.8796355461501142,-0.588639578632972
15862193,1972.0,1,203639,232934,0.59,-0.8,9.95,-0.03,-0.01,-0.01,31.39,13.944705,-25.624505512042987,-139.80481424064828,9.99952998895448,0.033166247903554,-0.9242167132198774,-0.3664205576659291
15902193,2000.0,1,203704,233025,0.58,-0.82,9.94,-0.03,-0.01,-0.01,31.39,13.984705,-1.7297007933878827,-90.46026886806413,9.990615596648686,0.033166247903554,-0.06266530648387049,-0.23689512858189668
15942192,2000.0,1,203791,233094,0.57,-0.81,9.94,-0.03,-0.01,-0.0,31.39,14.024704,7.048999193416734,-58.68279851347505,9.989224194100359,0.03162277660168379,0.2538596206706954,-0.1534818464895234
15982193,2004.0,1,203721,233301,0.58,-0.81,9.96,-0.03,-0.01,-0.0,31.39,14.064705,4.865151689146683,-17.241992180242917,10.009700295213639,0.03162277660168379,0.17511878509768639,-0.044703091282216466
16022190,1999.0,1,203942,233449,0.56,-0.81,9.94,-0.03,-0.01,-0.0,31.39,14.104702,6.462283921776742,56.98275428363545,9.988658568596685,0.03162277660168379,0.23270500678760755,0.15013084754111913
16062193,2005.0,1,203998,233692,0.5549999999999999,-0.82,9.95,-0.03,-0.01,-0.0,31.39,14.144705,10.284588610887768,173.23780951541053,9.999146213552434,0.03162277660168379,0.3705220770943696,0.4552909376460284
16102190,1999.0,1,204058,233836,0.57,-0.81,9.95,-0.03,-0.01,-0.0,31.39,14.184702,5.322341921700509,317.1906936876154,9.999174965965942,0.03162277660168379,0.19160324239459794,0.8331555820459815
16142193,1982.0,1,204180,233916,0.58,-0.8,9.96,-0.03,-0.01,-0.01,31.39,14.224705,-9.764567263118316,443.83470411228467,10.008896043020929,0.033166247903554,-0.35237056214255125,1.1655858368455692
16182190,1994.0,1,204149,234158,0.57,-0.83,9.96,-0.03,-0.01,-0.01,31.39,14.264702,0.28283804968173787,485.776474996936,10.010764206592823,0.033166247903554,0.009898821650802917,1.2756795833652597
16222192,2007.0,1,204258,233980,0.58,-0.8,9.95,-0.03,-0.01,-0.0,31.39,14.304704,15.480976696806717,386.219643596938,9.998944944342878,0.03162277660168379,0.557883117206761,1.014350976363928
16262189,2005.0,1,203967,232756,0.57,-0.8,9.98,-0.03,-0.01,-0.0,31.39,14.344701,11.962428744637853,142.5518926608746,10.028225166997398,0.03162277660168379,0.4310183039742634,0.37474289495134383
16302193,2005.0,1,203449,231205,0.57,-0.8,9.95,-0.03,-0.01,-0.01,31.39,14.384705,12.608630310861155,-175.04953369518228,9.998369867133341,0.033166247903554,0.454317756510908,-0.4589350874042298
16342190,1998.0,1,203142,230680,0.57,-0.8499999999999999,9.95,-0.03,-0.01,-0.0,31.39,14.424702,4.386738062547718,-454.46041683377166,10.002494688826381,0.03162277660168379,0.1578690968139308,-1.1923659915904883
16382879,1982.0,1,203055,230572,0.58,-0.81,9.95,-0.03,-0.01,-0.0,31.39,14.465391,-10.731356919018657,-604.7311119894374,9.999749996874922,0.03162277660168379,-0.3872291432385695,-1.5868143773609562
16421189,2002.0,1,203123,230566,0.56,-0.79,9.97,-0.03,-0.01,-0.01,31.39,14.503701,5.784811134699998,-603.7879375343377,10.016915692966574,0.033166247903554,0.2082780386828779,-1.5843386209206962
16461192,2025.0,1,203107,231013,0.59,-0.81,9.95,-0.03,-0.01,-0.0,31.39,14.543704,32.26284163351107,-496.9216951990403,10.000334994388936,0.03162277660168379,1.1629702695860957,-1.3038234031076215
16501190,2032.0,1,203282,231287,0.58,-0.81,9.94,-0.03,-0.01,-0.01,31.39,14.583702,32.418097981265234,-354.8922606109095,9.989799797793747,0.033166247903554,1.1685681945905992,-0.9310076578477365
16541193,2019.0,1,203328,231539,0.56,-0.81,9.95,-0.03,-0.01,-0.0,31.39,14.623705,24.499968491796935,-228.84806469104285,9.998609903381569,0.03162277660168379,0.8830720090937029,-0.6001518674700775
16581190,2007.0,1,203406,231708,0.58,-0.8,9.97,-0.03,-0.01,-0.0,31.39,14.663702,6.022623664544958,-132.34269372709315,10.018847239078955,0.03162277660168379,0.216852610521392,-0.34683309659810463
16621192,1995.0,1,203445,231968,0.595,-0.8,9.96,-0.03,-0.01,-0.0,31.39,14.703704,-5.600129055094301,-52.99816487309055,10.00977647103071,0.03162277660168379,-0.20221752098431378,-0.13856014428522226
16661189,2001.0,1,203578,232148,0.58,-0.81,9.95,-0.03,-0.01,-0.01,31.39,14.743701,2.198905018616017,25.513336020004118,9.999749996874922,0.033166247903554,0.07898455856820587,0.0675261772002629
16701193,1989.0,1,203553,232433,0.57,-0.81,9.96,-0.03,-0.01,-0.0,31.39,14.783705,-21.49371944561708,111.62294844938448,10.009125835955906,0.03162277660168379,-0.7752770341407573,0.2935569251575042
16741190,1967.0,1,203714,232537,0.59,-0.81,9.97,-0.03,-0.01,-0.0,31.39,14.823702,-29.012133884327124,209.1001904468634,10.02023452819344,0.03162277660168379,-1.0463610882840348,0.549426778660429
16781193,2022.0,1,203797,232800,0.58,-0.8,9.96,-0.03,-0.01,-0.0,31.39,14.863705,2.910768637957009,323.92420192622194,10.008896043020929,0.03162277660168379,0.10465152299284487,0.8508304949925085
16821190,2004.0,1,203868,233068,0.58,-0.81,9.96,-0.03,-0.01,-0.0,31.39,14.903702,5.851748714706939,459.9850150756401,10.009700295213639,0.03162277660168379,0.21069154098588935,1.2079790931127838
16861192,2031.0,1,203997,233250,0.58,-0.8,9.95,-0.03,-0.01,-0.01,31.39,14.943704,8.990449666330635,601.4487480639094,9.998944944342878,0.033166247903554,0.3238605855558104,1.5793099175591865
16901189,2029.0,1,203987,233503,0.58,-0.81,9.95,-0.03,-0.01,-0.0,31.39,14.983701,22.31414895901651,698.3785171788901,9.999749996874922,0.03162277660168379,0.8042600700336707,1.8337426991531083
16941193,2029.0,1,204037,233717,0.58,-0.81,9.98,-0.03,-0.01,-0.01,31.39,15.023705,8.200960723526434,678.8559901141986,10.029601188482022,0.033166247903554,0.2953947614034812,1.7824976491528355
16981192,2000.0,1,203988,232880,0.58,-0.8,9.98,-0.03,-0.01,-0.0,31.39,15.063704,-17.39803884923162,492.7357726815573,10.028798532227079,0.03162277660168379,-0.6276031183710089,1.2939471752929566
17021204,1993.0,1,203520,230921,0.57,-0.81,9.97,-0.03,-0.01,-0.01,31.39,15.103716,-27.613044474652895,159.47832866066958,10.019076803777882,0.033166247903554,-0.9959155013354537,0.4191734164848334
17061192,2007.0,1,202995,229684,0.57,-0.82,10.0,-0.03,-0.01,-0.0,31.39,15.143704,-18.31533452144886,-222.61463291130386,10.04974129020245,0.03162277660168379,-0.6606771437123675,-0.5837896146650223
17101193,2018.0,1,202768,229447,0.57,-0.8,9.96,-0.03,-0.01,-0.0,31.39,15.183705,-6.590097744297462,-523.2007351492597,10.0083215376006,0.03162277660168379,-0.23791184562307943,-1.3728037513865974
17141189,2026.0,1,202654,229460,0.58,-0.81,9.96,-0.03,-0.01,-0.01,31.39,15.223701,-3.349594680164233,-653.1346043048328,10.009700295213639,0.033166247903554,-0.12107222268794539,-1.7138696185021702
17181193,2019.0,1,202685,229790,0.56,-0.82,9.96,-0.03,-0.01,-0.0,31.39,15.263705,-12.172913696779288,-611.0035937723387,10.009375604901637,0.03162277660168379,-0.4392059341934612,-1.603279133256822
17221190,2014.0,1,202830,230238,0.58,-0.81,9.96,-0.03,-0.01,-0.0,31.39,15.303702,-18.704588499508294,-471.56352124991645,10.009700295213639,0.03162277660168379,-0.6747120904852477,-1.237260253386666
17261193,2015.0,1,202995,230418,0.57,-0.82,9.96,-0.03,-0.01,-0.0,31.39,15.343705,-20.914990091771884,-329.2480987445826,10.009940059760599,0.03162277660168379,-0.7544103606192332,-0.8636938130416631
17301198,2017.0,1,203033,230572,0.59,-0.82,9.97,-0.03,-0.01,-0.0,31.39,15.38371,-22.234915551569205,-239.59069311990558,10.021047849401779,0.03162277660168379,-0.8020016111050441,-0.6283503957214261
17341193,2015.0,1,203050,230748,0.57,-0.81,9.94,-0.03,-0.01,-0.0,31.39,15.423705,-21.221177269742025,-197.16798193892188,9.989224194100359,0.03162277660168379,-0.7654502497085444,-0.5169942199347136
17381190,2005.0,1,203167,230915,0.56,-0.8,9.99,-0.03,-0.01,-0.0,31.39,15.463702,-43.78474788177784,-158.42949829428775,10.037614258378332,0.03162277660168379,-1.5790026612337902,-0.41530884258956535
17421879,1999.0,1,203107,231316,0.57,-0.82,9.95,-0.03,-0.01,-0.0,31.43,15.504391,-35.51604034921702,-85.49317884459731,9.999989999994998,0.03162277660168379,-1.2808660290057552,-0.22385692016938163
17460190,2077.0,1,203360,231604,0.59,-0.81,9.95,-0.03,-0.01,-0.0,31.43,15.542702,20.185038779405854,24.74131535711118,10.000334994388936,0.03162277660168379,0.7274928441894932,0.06549968558162686
17500231,2062.0,1,203472,231894,0.58,-0.8,9.98,-0.03,-0.01,-0.0,31.43,15.582743,26.618375467702382,146.28699255896916,10.028798532227079,0.03162277660168379,0.9594533200782538,0.38454722921604284
17540189,2074.0,1,203585,232117,0.57,-0.81,9.94,-0.03,-0.01,-0.0,31.43,15.622701,14.354218145547794,254.47027568617057,9.989224194100359,0.03162277660168379,0.5172566954251651,0.6685195722778046
17580193,2077.0,1,203706,232196,0.58,-0.81,9.96,-0.03,-0.01,-0.0,31.43,15.662705,36.94295117199445,349.67377977268615,10.009700295213639,0.03162277660168379,1.3317163633095979,0.9184210481957613
17620190,2100.0,1,203809,232406,0.57,-0.81,9.96,-0.03,-0.01,-0.0,31.43,15.702702,42.02561643141392,449.12586710167204,10.009125835955906,0.03162277660168379,1.5149770116296208,1.1794747105068661
17660193,2074.0,1,203775,232808,0.58,-0.81,9.97,-0.03,-0.01,-0.01,31.43,15.742705,27.950790907655662,551.9421650122871,10.019650692514187,0.033166247903554,1.0074949094599115,1.4493591527111556
17700193,2069.0,1,203955,233123,0.59,-0.82,9.98,-0.03,-0.01,-0.0,31.43,15.782705,14.199984752180185,612.4725482099481,10.03099695942532,0.03162277660168379,0.5116956540780563,1.6082464987612417
17740193,2045.0,1,204006,233374,0.57,-0.8,9.97,-0.03,-0.01,-0.0,31.43,15.822705,-5.023107132793207,556.7883865577439,10.018273304317466,0.03162277660168379,-0.18141241063796723,1.4620800911729848
17780189,2054.0,1,203930,232385,0.57,-0.8,9.98,-0.03,-0.01,-0.0,31.43,15.862701,0.8918832305523917,339.757185520459,10.028225166997398,0.03162277660168379,0.03185856304744368,0.8923907926553869
17820193,2064.0,1,203367,230626,0.57,-0.81,9.95,-0.03,-0.01,-0.0,31.43,15.902705,14.613289120903406,-3.6244106808237713,9.999174965965942,0.03162277660168379,0.5265977620666445,-0.008958044418758523
17860190,2055.0,1,202967,229855,0.57,-0.79,9.97,-0.03,-0.01,-0.0,31.43,15.942702,0.6600964644172973,-362.5303385203807,10.017479722964255,0.03162277660168379,0.023501256227916757,-0.9510569928072841
17900193,2035.0,1,202888,229834,0.57,-0.8,9.97,-0.03,-0.01,-0.0,31.43,15.982705,-9.366412357945267,-613.1710740891342,10.018273304317466,0.03162277660168379,-0.3380146834195554,-1.6089685932760465
17940190,2041.0,1,202832,229968,0.595,-0.8,9.96,-0.03,-0.01,-0.0,31.43,16.022702,-15.141158538363811,-691.1438072186802,10.00977647103071,0.03162277660168379,-0.5462290109214127,-1.813640693083667
17980193,2029.0,1,202956,230262,0.57,-0.82,9.93,-0.03,-0.01,-0.0,31.43,16.062705,-10.213728315554354,-618.8372030856841,9.980090179953285,0.03162277660168379,-0.36856551921098774,-1.6238417222912622
18020189,2064.0,1,203066,230800,0.57,-0.8,9.96,-0.03,-0.01,-0.0,31.43,16.102701,10.474327040230666,-474.78213357768936,10.0083215376006,0.03162277660168379,0.3773632885056782,-1.2457088496734923
18060193,2055.0,1,203269,231305,0.57,-0.82,9.96,-0.03,-0.01,-0.0,31.43,16.142705,16.74333858421274,-336.0934668726749,10.009940059760599,0.03162277660168379,0.603398854736747,-0.8816623491247201
18100190,2061.0,1,203398,231609,0.59,-0.81,9.96,-0.03,-0.01,-0.01,31.43,16.182702,16.338580894181465,-237.21795176120273,10.010284711235741,0.033166247903554,0.5888049059123229,-0.6221221421166788
18140193,2043.0,1,203430,231877,0.58,-0.8,9.96,-0.03,-0.01,-0.0,31.43,16.222705,2.6876508306758513,-167.81916545855083,10.008896043020929,0.03162277660168379,0.09660678427268035,-0.43995595726504366
18180190,2039.0,1,203510,232175,0.58,-0.82,9.96,-0.03,-0.01,-0.01,31.43,16.262702,5.016187385533166,-100.85133049706909,10.01051447229362,0.033166247903554,0.1805645302385762,-0.2641708225005051
18220193,2064.0,1,203686,232609,0.56,-0.81,9.97,-0.03,-0.01,-0.0,31.43,16.302705,24.446606010050907,-21.650913776431356,10.018512863693893,0.03162277660168379,0.8811479707198165,-0.05627615284823608
18260190,2032.0,1,203822,232942,0.595,-0.81,9.97,-0.03,-0.01,-0.0,31.43,16.342702,4.7103171654994895,66.11531675028482,10.020530175594503,0.03162277660168379,0.1695360693889703,0.17410308324007662
18300192,2032.0,1,203908,233289,0.595,-0.81,9.96,-0.03,-0.01,-0.0,31.43,16.382704,-0.822361115730264,156.47586037118458,10.010580652489645,0.03162277660168379,-0.029950254618934594,0.4112921807662688
18340190,2039.0,1,204038,233590,0.57,-0.81,9.95,-0.03,-0.01,-0.0,31.43,16.422702,14.227082230329204,255.61850094449696,9.999174965965942,0.03162277660168379,0.5126726811219332,0.671533570444104
18380193,2027.0,1,204150,233875,0.595,-0.8,9.98,-0.03,-0.01,-0.0,31.43,16.462705,3.5958985275975883,373.6722530265106,10.029677213150979,0.03162277660168379,0.12935457569265993,0.9814150938819198
18420189,2016.0,1,204231,234188,0.56,-0.8,9.96,-0.03,-0.01,-0.0,31.43,16.502701,-5.920656674526259,498.18614204974085,10.00775699145418,0.03162277660168379,-0.21377446922770124,1.3082539527847736
18460879,2005.0,1,204354,234482,0.57,-0.8,9.96,-0.03,-0.01,-0.0,31.39,16.543391,-11.031593572364025,577.9205862545654,10.0083215376006,0.03162277660168379,-0.39805448013037786,1.5175504012660843
18501189,2005.0,1,204450,234648,0.59,-0.8,9.98,-0.03,-0.01,-0.0,31.39,16.583701,-11.191367631774941,543.2309816720879,10.029381835387463,0.03162277660168379,-0.40381529580835357,1.4264930030395067
18541193,2000.0,1,204344,233712,0.56,-0.81,9.95,-0.03,-0.01,-0.0,31.39,16.623705,-11.362945853265149,357.38224576838934,9.998609903381569,0.03162277660168379,-0.4100017225161953,0.9386551461722291
18581190,1997.0,1,203874,232218,0.595,-0.8,9.94,-0.03,-0.01,-0.01,31.39,16.663702,-12.367865442078884,58.69404683296167,9.98987612535811,0.033166247903554,-0.44623511699642326,0.1546228516738178
18621193,2000.0,1,203583,231405,0.58,-0.81,9.96,-0.03,-0.01,-0.01,31.39,16.703705,-7.131668640899175,-247.04968679423249,10.009700295213639,0.033166247903554,-0.2574387333004753,-0.647929649089906
18661193,1981.0,1,203422,231387,0.58,-0.82,9.96,-0.03,-0.01,-0.01,31.39,16.743705,-22.951074441147288,-444.61575773812547,10.01051447229362,0.033166247903554,-0.8278234458522762,-1.1665245600012115
18701193,1984.0,1,203451,231493,0.57,-0.82,9.96,-0.03,-0.01,-0.01,31.39,16.783705,-18.284813889950513,-475.0398726748334,10.009940059760599,0.033166247903554,-0.6595766914043667,-1.2463853938973217
18741193,2018.0,1,203579,231951,0.57,-0.81,9.95,-0.03,-0.01,-0.01,31.39,16.823705,17.686576577486065,-361.3180590872565,9.999174965965942,0.033166247903554,0.6374082567619929,-0.9478748576278118
18781193,2006.0,1,203800,232372,0.57,-0.82,9.98,-0.03,-0.01,-0.0,31.39,16.863705,8.543768197889456,-181.64277710868592,10.029840477295739,0.03162277660168379,0.3077550324019086,-0.47624181656226167
18821189,1999.0,1,203888,232627,0.58,-0.79,9.96,-0.03,-0.01,-0.0,31.39,16.903701,0.7484667394635808,-17.62526982625687,10.008101718108184,0.03162277660168379,0.026687536077290585,-0.045709164013932366
18861193,2019.0,1,203986,232655,0.57,-0.83,9.95,-0.03,-0.01,-0.0,31.39,16.943705,26.122416463738748,84.22395578740698,10.000814966791456,0.03162277660168379,0.941571015427542,0.2216367918536792
18901190,2010.0,1,204012,232880,0.56,-0.81,9.97,-0.03,-0.01,-0.0,31.39,16.983702,12.164513266939537,120.03243581888877,10.018512863693893,0.03162277660168379,0.43830466628266346,0.31563114737775755
18941193,1986.0,1,204045,233054,0.57,-0.8,9.97,-0.03,-0.01,-0.01,31.39,17.023705,-3.3702307174754447,114.76755016410608,10.018273304317466,0.033166247903554,-0.12181627593233331,0.30181124958834593
18981190,1999.0,1,204061,233255,0.57,-0.8,9.97,-0.03,-0.01,-0.01,31.39,17.063702,1.3920385660728867,105.86532335213481,10.018273304317466,0.033166247903554,0.04989217068633696,0.2784436262995396
19021203,1974.0,1,204109,233421,0.57,-0.82,9.97,-0.03,-0.01,-0.0,31.39,17.103715,-14.973599864073286,131.16221312824428,10.019890218959487,0.03162277660168379,-0.5401875130625448,0.34484591003731885
19061190,1980.0,1,204125,233593,0.59,-0.82,9.94,-0.03,-0.01,-0.0,31.39,17.143702,-16.3169354841099,214.16911998570419,9.991201128993449,0.03162277660168379,-0.5886228406070954,0.5627323075402201
19101193,1987.0,1,204200,233751,0.57,-0.83,9.97,-0.03,-0.01,-0.0,31.39,17.183705,-4.469826481029904,343.00739867697393,10.020713547447608,0.03162277660168379,-0.16146331586782517,0.9009223385544005
19141202,2000.0,1,204273,233917,0.57,-0.79,9.95,-0.03,-0.01,-0.0,31.39,17.223714,4.01865482287811,457.39896273488307,9.997574705897424,0.03162277660168379,0.1445974824748643,1.2011909154825888
19181193,2000.0,1,204342,234159,0.58,-0.81,9.96,-0.03,-0.01,-0.0,31.39,17.263705,6.140952895139679,467.41334310124927,10.009700295213639,0.03162277660168379,0.22111909088301132,1.2274778516407843
19221189,1983.0,1,204337,233752,0.56,-0.81,9.96,-0.03,-0.01,-0.01,31.39,17.303701,-16.156209370373467,308.0481595118859,10.008561335177,0.033166247903554,-0.582827697645298,0.8091571714195309
19261193,1978.0,1,203922,232155,0.59,-0.81,9.96,-0.03,-0.01,-0.0,31.39,17.343705,-17.186548760108174,-4.094892042927258,10.010284711235741,0.03162277660168379,-0.6199776288162533,-0.010193019831792768
19301190,2002.0,1,203363,230852,0.58,-0.8,9.96,-0.03,-0.01,-0.0,31.39,17.383702,-2.3690618447914535,-362.1969094232787,10.008896043020929,0.03162277660168379,-0.08571811732433347,-0.9501817684730615
19341193,1994.0,1,203120,230510,0.57,-0.8,9.95,-0.03,-0.01,-0.0,31.39,17.423705,-4.541785507675265,-626.521609420661,9.998369867133341,0.03162277660168379,-0.1640578715197181,-1.6440126656098917
19381190,1999.0,1,203157,230558,0.57,-0.8,9.93,-0.03,-0.01,-0.0,31.39,17.463702,-8.811124952089965,-708.487453096934,9.978466816099555,0.03162277660168379,-0.31799323309634264,-1.8591663567066712
19421193,1984.0,1,203191,230854,0.57,-0.83,9.98,-0.03,-0.01,-0.0,31.39,17.503705,-22.289640204863456,-617.4080906239323,10.030662989055111,0.03162277660168379,-0.8039747639549603,-1.6200904179997733
19461877,1991.0,1,203398,231348,0.56,-0.81,9.95,-0.03,-0.01,-0.0,31.39,17.544389,-18.169599636350885,-438.4493032257131,9.998609903381569,0.03162277660168379,-0.6554225246960151,-1.1503381170901141
19500193,2017.0,1,203526,231637,0.57,-0.82,9.96,-0.03,-0.01,-0.0,31.39,17.582705,1.2955432380386818,-266.9356754961267,10.009940059760599,0.03162277660168379,0.04641293381496734,-0.7001287564061153
19540190,2006.0,1,203567,231791,0.58,-0.82,9.97,-0.03,-0.01,-0.0,31.39,17.622702,-6.719792131320065,-152.58218325146453,10.020464061110143,0.03162277660168379,-0.24258810822077506,-0.39996011489955413
19581193,1995.0,1,203617,231864,0.57,-0.81,9.97,-0.03,-0.01,-0.0,31.39,17.663705,-26.580789203266516,-89.01938550339092,10.019076803777882,0.03162277660168379,-0.9586964911093827,-0.23311292662502073
19621189,1994.0,1,203618,232065,0.58,-0.81,9.96,-0.03,-0.01,-0.0,31.39,17.703701,-28.10887955499279,-42.32516325823887,10.009700295213639,0.03162277660168379,-1.013793337794288,-0.11054438077296357
19661193,1996.0,1,203730,232312,0.58,-0.83,9.97,-0.03,-0.01,-0.0,31.39,17.743705,-26.20280987363551,15.44140445957583,10.021287342452565,0.03162277660168379,-0.9450680632149088,0.04108817382584528
19701190,1991.0,1,203831,232617,0.57,-0.8,9.96,-0.03,-0.01,-0.0,31.39,17.783702,-44.56424458647391,95.20474457425654,10.0083215376006,0.03162277660168379,-1.6071082051118144,0.2504604717266738
19741193,2003.0,1,203890,232893,0.59,-0.79,9.97,-0.03,-0.01,-0.01,31.39,17.823705,-18.656796367046276,200.2125274743571,10.018637631933796,0.033166247903554,-0.6729888967015621,0.5260973842688912
19779192,2096.0,1,203988,232994,0.57,-0.82,9.97,-0.03,-0.01,-0.0,31.39,17.861704,49.23071555107247,331.94413725590226,10.019890218959487,0.03162277660168379,1.7747641643309706,0.871882174706234
19819193,2086.0,1,204040,233131,0.58,-0.8,9.97,-0.03,-0.01,-0.0,31.39,17.901705,60.11577729467471,476.9703817662731,10.018847239078955,0.03162277660168379,2.1672360998846933,1.2525643029296365
19859190,2096.0,1,204111,233312,0.58,-0.82,9.96,-0.03,-0.01,-0.0,31.39,17.941702,45.05859002657114,588.2953948851296,10.01051447229362,0.03162277660168379,1.624333949184369,1.5447834323821266
19899192,2074.0,1,204170,233529,0.58,-0.81,9.99,-0.03,-0.01,-0.0,31.39,17.981704,37.544382223301106,592.2125724629547,10.039551782823773,0.03162277660168379,1.353401569546225,1.5550657057871227
19939190,2065.0,1,204208,232883,0.57,-0.79,9.96,-0.03,-0.01,-0.0,31.39,18.021702,15.997957854515182,433.1635711408589,10.007527167087781,0.03162277660168379,0.5765233969212882,1.137574978370731
19979193,2066.0,1,203695,230844,0.58,-0.83,9.95,-0.03,-0.01,-0.0,31.39,18.061705,16.119890111819572,127.24972923144279,10.001389903408425,0.03162277660168379,0.5809197880633794,0.3345759571642878
20019190,2069.0,1,203201,229503,0.57,-0.81,9.97,-0.03,-0.01,-0.0,31.39,18.101702,23.82780777148902,-225.84098952834142,10.019076803777882,0.03162277660168379,0.8588365729412636,-0.5922585390830003
20059193,2079.0,1,202978,229222,0.57,-0.82,9.96,-0.03,-0.01,-0.01,31.39,18.141705,17.614166510401446,-493.0208766194266,10.009940059760599,0.033166247903554,0.6347974383898345,-1.2935840707459911
20099193,2078.0,1,202978,229384,0.59,-0.79,9.96,-0.03,-0.01,-0.0,31.39,18.181705,34.293614988732905,-585.5158649064706,10.008686227472616,0.03162277660168379,1.2361918615410787,-1.5363759123880925
20139193,2096.0,1,203014,229590,0.57,-0.82,9.96,-0.03,-0.01,-0.01,31.39,18.221705,29.00644747362763,-505.2660239854239,10.009940059760599,0.033166247903554,1.0455576770845905,-1.325726589332437
20179193,2035.0,1,203162,230163,0.56,-0.81,9.97,-0.03,-0.01,-0.0,31.39,18.261705,-12.384484950502905,-329.9723500176651,10.018512863693893,0.03162277660168379,-0.446834350220154,-0.8655949138867992
20219193,2055.0,1,203340,230551,0.59,-0.81,9.96,-0.03,-0.01,-0.0,31.39,18.301705,-10.53247534061745,-155.88576867888398,10.010284711235741,0.03162277660168379,-0.3800582663193845,-0.4086317586804694
20259190,2065.0,1,203431,230709,0.57,-0.8,9.97,-0.03,-0.01,-0.01,31.39,18.341702,10.203930790092635,-42.97966330068166,10.018273304317466,0.033166247903554,0.3676138776012783,-0.11226239029545114
20299193,2074.0,1,203432,230704,0.56,-0.84,9.96,-0.03,-0.01,-0.0,31.39,18.381705,13.100286327681891,4.118567023532306,10.011033912638595,0.03162277660168379,0.4720449125981651,0.011366643993550495
20339190,2067.0,1,203412,230653,0.58,-0.8,9.96,-0.03,-0.01,-0.0,31.39,18.421702,6.648872493833422,17.588788506784535,10.008896043020929,0.03162277660168379,0.23943264690139304,0.04672488276748747
20379192,2062.0,1,203446,230951,0.57,-0.81,9.95,-0.03,-0.01,-0.01,31.39,18.461704,3.3269593900535486,34.636247967444,9.999174965965942,0.033166247903554,0.11965770245993834,0.09147308106908487
20419193,2079.0,1,203549,231339,0.57,-0.81,9.96,-0.03,-0.01,-0.0,31.39,18.501705,18.566283727204123,79.36924492608166,10.009125835955906,0.03162277660168379,0.6691269898204639,0.20889356962629518
20459193,2043.0,1,203636,231602,0.58,-0.83,9.95,-0.03,-0.01,-0.0,31.39,18.541705,-16.376544490327802,164.40411255266508,10.001389903408425,0.03162277660168379,-0.5907721037530324,0.43210319965272975
20499876,1994.0,1,203706,231921,0.58,-0.81,9.96,-0.03,-0.01,-0.01,31.39,18.582388,-63.901932312063124,295.1614940359137,10.009700295213639,0.033166247903554,-2.3043481390291616,0.7753307198303129
20540193,2032.0,1,203828,232206,0.58,-0.79,9.95,-0.03,-0.01,-0.0,31.39,18.622705,-26.242390257628287,459.20939129040113,9.998149828843333,0.03162277660168379,-0.9464951740831348,1.2059431435902521
20579196,2064.0,1,203906,232461,0.57,-0.83,9.95,-0.03,-0.01,-0.01,31.39,18.661708,6.22261004953766,607.2650393960375,10.000814966791456,0.033166247903554,0.2240633223621962,1.5945772105250713
20619193,2033.0,1,203992,232728,0.58,-0.83,9.97,-0.03,-0.01,-0.01,31.39,18.701705,-19.249491988716006,655.0331981888972,10.021287342452565,0.033166247903554,-0.6943591381673635,1.7199647527038864
20659193,2033.0,1,204056,232582,0.59,-0.81,9.95,-0.03,-0.01,-0.0,31.39,18.741705,-27.456866835406377,525.6167912036747,10.000334994388936,0.03162277660168379,-0.9902843582322629,1.3802571818122087
20699192,2041.0,1,203693,230838,0.56,-0.82,9.97,-0.03,-0.01,-0.01,31.39,18.781704,-3.005306517675683,211.64220352531095,10.01932632465876,0.033166247903554,-0.10865856397815114,0.5560993567992495
20739193,2067.0,1,203102,229140,0.58,-0.79,9.94,-0.03,-0.01,-0.0,31.39,18.821705,5.333825127989698,-195.89800487182103,9.988198035681911,0.03162277660168379,0.19201728103809299,-0.5136606331461218
20779221,2038.0,1,202720,228706,0.57,-0.8,9.99,-0.03,-0.01,-0.0,31.39,18.861733,-0.6859656637503649,-547.8425054519244,10.03817712535498,0.03162277660168379,-0.02503237833121034,-1.4374863996457532
20819190,2054.0,1,202640,228704,0.57,-0.79,9.98,-0.03,-0.01,-0.0,31.39,18.901702,-3.1097741780220405,-723.423379769015,10.027432373244908,0.03162277660168379,-0.11242525137273596,-1.8983719527125023
20859193,2025.0,1,202735,228880,0.57,-0.79,9.95,-0.03,-0.01,-0.0,31.39,18.941705,-14.076548147150113,-697.7744590322128,9.997574705897424,0.03162277660168379,-0.5078434040509852,-1.8310456162574409
20899190,2038.0,1,202868,229331,0.59,-0.8,9.95,-0.03,-0.01,-0.0,31.39,18.981702,-8.739819859559956,-541.4094242712329,9.99952998895448,0.03162277660168379,-0.31542225570188376,-1.4206000833575008
20939193,2034.0,1,203027,229777,0.56,-0.8,9.97,-0.03,-0.01,-0.0,31.39,19.021705,-8.91620743653174,-359.99973309224276,10.017709319001026,0.03162277660168379,-0.32178208859694624,-0.9444143588252094
20979204,2000.0,1,203157,230011,0.58,-0.81,9.95,-0.03,-0.01,-0.0,31.39,19.061716,-34.923184228761386,-225.8270529279802,9.999749996874922,0.03162277660168379,-1.2594900005935274,-0.5922219566375013
21019193,2030.0,1,203225,230148,0.59,-0.83,9.96,-0.03,-0.01,-0.0,31.39,19.101705,-15.419924569769146,-148.4929206685284,10.011922892232041,0.03162277660168379,-0.556280202774007,-0.38922613231459424
21059190,2042.0,1,203246,230358,0.57,-0.81,9.95,-0.03,-0.01,-0.01,31.39,19.141702,15.873272684864633,-94.59318375375669,9.999174965965942,0.033166247903554,0.5720277467338781,-0.24774369492079207
21099193,2032.0,1,203374,230584,0.57,-0.8,10.0,-0.03,-0.01,-0.0,31.39,19.181705,-11.629878720096878,-29.21177794490266,10.04812917910593,0.03162277660168379,-0.4196262576245908,-0.07612280800075158
21139189,2005.0,1,203468,230860,0.58,-0.82,9.97,-0.03,-0.01,-0.0,31.39,19.221701,-17.076870973898775,57.49220767164082,10.020464061110143,0.03162277660168379,-0.6160230850520757,0.1514681213609803
21179193,2057.0,1,203557,231163,0.595,-0.83,9.97,-0.03,-0.01,-0.0,31.39,19.261705,19.61717330603523,155.3549121523346,10.022166681910655,0.03162277660168379,0.7070178788913962,0.4083497826160531
21219189,2039.0,1,203753,231501,0.57,-0.8,9.98,-0.03,-0.01,-0.01,31.39,19.301701,17.18360117393756,257.30618415200354,10.028225166997398,0.033166247903554,0.6192729687115947,0.6759636019695673
21259192,2037.0,1,203796,231790,0.57,-0.82,9.95,-0.03,-0.01,-0.01,31.39,19.341704,7.778810041716924,371.28792749269854,9.999989999994998,0.033166247903554,0.28017369062889574,0.9751564327571463
21299193,2038.0,1,203894,232052,0.58,-0.81,9.95,-0.03,-0.01,-0.0,31.39,19.381705,16.185714524893754,503.9420486382595,9.999749996874922,0.03162277660168379,0.5832931540041923,1.323362740696714
21339193,2037.0,1,204016,232418,0.57,-0.81,9.96,-0.03,-0.01,-0.01,31.39,19.421705,13.714638332251328,629.6683076232285,10.009125835955906,0.033166247903554,0.4941959969028907,1.6533839724093102
21379193,2041.0,1,204074,232691,0.57,-0.82,9.97,-0.03,-0.01,-0.01,31.39,19.461705,22.09836241717825,680.5679324551503,10.019890218959487,0.033166247903554,0.7964796675208891,1.7869913589358442
21419193,2047.0,1,204169,232675,0.58,-0.81,9.98,-0.03,-0.01,-0.0,31.39,19.501705,25.979741173998857,580.9523247888905,10.029601188482022,0.03162277660168379,0.9364267132233935,1.525508469003136
21459190,2033.0,1,203920,231198,0.57,-0.81,9.96,-0.03,-0.01,-0.0,31.39,19.541702,18.85875838701976,308.30333616218473,10.009125835955906,0.03162277660168379,0.6796724601670815,0.8098269894282413
21499192,2030.0,1,203314,229475,0.58,-0.81,9.96,-0.03,-0.01,-0.0,31.39,19.581704,10.289662842983297,-70.91348444555142,10.009700295213639,0.03162277660168379,0.3707050336764167,-0.1855864049849474
21539877,2009.0,1,202959,228828,0.58,-0.81,9.95,-0.03,-0.01,-0.0,31.41,19.622389,-1.9968439069279962,-428.41696844047937,9.999749996874922,0.03162277660168379,-0.07229742225046779,-1.124004052038741
21580193,2032.0,1,202905,228740,0.57,-0.82,9.94,-0.03,-0.01,-0.0,31.41,19.662705,15.148973956020663,-648.0032894962847,9.9900400399598,0.03162277660168379,0.5459124218304091,-1.700400333349698
21619190,2032.0,1,202855,228982,0.57,-0.82,9.97,-0.03,-0.01,-0.01,31.41,19.701702,21.598890920310247,-688.642503348045,10.019890218959487,0.033166247903554,0.7784707163778312,-1.8070749733132792
21659193,2007.0,1,202978,229539,0.58,-0.81,9.97,-0.03,-0.01,-0.01,31.41,19.741705,-6.41907085580472,-591.7809702367562,10.019650692514187,0.033166247903554,-0.23174529778535777,-1.552821305694173
21699192,2001.0,1,203126,230051,0.5549999999999999,-0.8,9.92,-0.03,-0.01,-0.0,31.41,19.781704,-9.492685870466333,-437.32172499487643,9.96766898527434,0.03162277660168379,-0.34256760291929444,-1.1473783156962183
21739192,2011.0,1,203290,230313,0.56,-0.8,9.97,-0.03,-0.01,-0.01,31.41,19.821704,-0.3014944199113513,-289.7714021633746,10.017709319001026,0.033166247903554,-0.01116987788899337,-0.7600706866171965
21779190,2017.0,1,203350,230541,0.57,-0.81,9.97,-0.03,-0.01,-0.0,31.41,19.861702,6.621832695319151,-173.07183338184242,10.019076803777882,0.03162277660168379,0.2384576995552178,-0.4537437845003166
21819193,2021.0,1,203487,230871,0.59,-0.81,9.96,-0.03,-0.01,-0.0,31.41,19.901705,10.522636285328186,-81.34586625467693,10.010284711235741,0.03162277660168379,0.37910512730964335,-0.21297056102473935
21859190,2002.0,1,203555,231168,0.59,-0.82,9.94,-0.03,-0.01,-0.0,31.41,19.941702,-8.580109948430248,-3.4515777726296784,9.991201128993449,0.03162277660168379,-0.3096637529552153,-0.008504372053866923
21899192,1999.0,1,203728,231565,0.57,-0.8,9.95,-0.03,-0.01,-0.01,31.41,19.981704,-11.783574453369623,65.29523340298341,9.998369867133341,0.033166247903554,-0.42516791309194335,0.17195043097341087
21939189,2007.0,1,203758,231811,0.56,-0.81,9.96,-0.03,-0.01,-0.01,31.41,20.021701,-3.557885595023647,130.56439121330223,10.008561335177,0.033166247903554,-0.12858236277154922,0.34327667600214773
21979192,2009.0,1,203848,232023,0.58,-0.82,9.96,-0.03,-0.01,-0.0,31.41,20.061704,-4.198919793992114,208.31348490390522,10.01051447229362,0.03162277660168379,-0.15169550064356516,0.5473617404227668
22019190,2021.0,1,203929,232292,0.58,-0.82,9.96,-0.03,-0.01,-0.0,31.41,20.101702,11.331267531177522,315.5407974189636,10.01051447229362,0.03162277660168379,0.40826114660317103,0.8288247381699733
22059192,2020.0,1,204040,232514,0.57,-0.83,9.98,-0.03,-0.01,-0.0,31.41,20.141704,2.944257340719373,443.35202285250557,10.030662989055111,0.03162277660168379,0.10585899211905847,1.1643188376907154
22099190,1986.0,1,204086,232743,0.57,-0.83,9.96,-0.03,-0.01,-0.0,31.41,20.181702,-24.063586499197516,538.4101913405204,10.010764206592823,0.03162277660168379,-0.8679361958792994,1.4138388194513172
22139193,2000.0,1,204175,232959,0.56,-0.78,9.96,-0.03,-0.01,-0.0,31.41,20.221705,-18.985833936964738,521.2454854148485,10.006178091559235,0.03162277660168379,-0.6848526798364345,1.3687828586893576
22179190,2002.0,1,204154,232127,0.58,-0.81,9.97,-0.03,-0.01,-0.0,31.41,20.261702,-12.887516544609465,340.81066903966394,10.019650692514187,0.03162277660168379,-0.46497166427808434,0.8951561014413462
22219192,1995.0,1,203673,230280,0.57,-0.82,9.94,-0.03,-0.01,-0.01,31.41,20.301704,-21.9900743921558,26.06815588789107,9.9900400399598,0.033166247903554,-0.7931736149023881,0.06898253434996988
22259192,1997.0,1,203166,229275,0.57,-0.81,9.93,-0.03,-0.01,-0.0,31.41,20.341704,-26.718522462314493,-313.2512071430604,9.979273520652693,0.03162277660168379,-0.9636626033871063,-0.8217032701548476
22299193,1988.0,1,203087,229155,0.58,-0.82,9.94,-0.03,-0.01,-0.01,31.41,20.381705,-25.601140691917646,-546.1499447139691,9.990615596648686,0.033166247903554,-0.9233742709449084,-1.4330435649984967
22339193,2015.0,1,203053,229361,0.57,-0.81,9.97,-0.03,-0.01,-0.01,31.41,20.421705,-16.848876682332147,-597.0500926721078,10.019076803777882,0.033166247903554,-0.6078025197476163,-1.5666523246889172
22379192,2010.0,1,203156,229695,0.58,-0.8,9.96,-0.03,-0.01,-0.0,31.41,20.461704,-4.209312927869683,-482.4154659431492,10.008896043020929,0.03162277660168379,-0.15207023562123267,-1.2657457279649384
22419211,2013.0,1,203361,230130,0.57,-0.8,9.95,-0.03,-0.01,-0.0,31.41,20.501723,-20.741796661517032,-286.163102874327,9.998369867133341,0.03162277660168379,-0.7481656959220152,-0.7505991936659783
22459193,1991.0,1,203524,230344,0.58,-0.8,9.97,-0.03,-0.01,-0.01,31.41,20.541705,-31.484220364412895,-100.65556326849948,10.018847239078955,0.033166247903554,-1.1354946723232533,-0.2636569494049155
22499190,2018.0,1,203576,230512,0.58,-0.82,9.97,-0.03,-0.01,-0.0,31.41,20.581702,-10.228865803042932,21.803968697774664,10.020464061110143,0.03162277660168379,-0.3691113166675391,0.057789388859945126
22539193,1999.0,1,203617,230692,0.58,-0.81,9.96,-0.03,-0.01,-0.0,31.41,20.621705,-36.42367275288931,80.7505493189831,10.009700295213639,0.03162277660168379,-1.3135916354038917,0.21251938161494152
22579876,1987.0,1,203660,230873,0.57,-0.82,9.97,-0.03,-0.01,-0.0,31.29,20.662388,-34.69979584500932,108.57409500438297,10.019890218959487,0.03162277660168379,-1.251435505964416,0.2855539321681806
22618193,2078.0,1,203720,231056,0.57,-0.79,9.96,-0.03,-0.01,-0.0,31.29,20.700705,34.0349987148774,144.18617297191506,10.007527167087781,0.03162277660168379,1.2268671896231251,0.3790327482052905
22658189,2063.0,1,203800,231308,0.56,-0.8,9.97,-0.03,-0.01,-0.0,31.29,20.740701,40.503489835920604,215.43989034081858,10.017709319001026,0.03162277660168379,1.4600951942212645,0.5660679766455009
22698192,2069.0,1,203831,231544,0.58,-0.81,9.96,-0.03,-0.01,-0.01,31.29,20.780704,26.314385413211728,328.8993090516935,10.009700295213639,0.033166247903554,0.94849265050326,0.863889747647489
22738192,2062.0,1,203923,231699,0.57,-0.82,9.96,-0.03,-0.01,-0.01,31.29,20.820704,31.387463806156195,460.2352711667143,10.009940059760599,0.033166247903554,1.131407634634143,1.2086359950526544
22778193,2058.0,1,203918,231803,0.59,-0.81,9.96,-0.03,-0.01,-0.0,31.29,20.860705,21.691692767901092,550.5695759452466,10.010284711235741,0.03162277660168379,0.7818167810676662,1.445756217745962
22818190,2054.0,1,203942,232008,0.59,-0.79,9.94,-0.03,-0.01,-0.0,31.29,20.900702,16.023713857745044,524.8757108545813,9.988783709741641,0.03162277660168379,0.577452055727077,1.378311906007613
22858193,2045.0,1,203926,231457,0.57,-0.82,9.95,-0.03,-0.01,-0.0,31.29,20.940705,12.097125021244125,336.57085188362186,9.999989999994998,0.03162277660168379,0.43587491477140605,0.8840269253140227
22898189,2059.0,1,203446,229488,0.56,-0.81,9.94,-0.03,-0.01,-0.0,31.29,20.980701,20.28144530259645,12.119878402162852,9.988658568596685,0.03162277660168379,0.7309688791122034,0.032369437346428
22938192,2059.0,1,202885,228199,0.57,-0.83,9.97,-0.03,-0.01,-0.0,31.29,21.020704,24.694809635655346,-345.44546898024174,10.020713547447608,0.03162277660168379,0.8900972040495844,-0.9062105960815232
22978190,2046.0,1,202664,228031,0.57,-0.81,9.97,-0.03,-0.01,-0.0,31.29,21.060702,11.1019232591108,-608.1778290018586,10.019076803777882,0.03162277660168379,0.39999190638328064,-1.5958617299425677
23018193,2029.0,1,202677,228103,0.57,-0.8,9.96,-0.03,-0.01,-0.0,31.29,21.100705,-6.587853987767613,-695.4445606527355,10.0083215376006,0.03162277660168379,-0.2378309447068583,-1.8249298219980077
23058189,2021.0,1,202671,228384,0.57,-0.81,9.94,-0.03,-0.01,-0.0,31.29,21.140701,-11.401121040492685,-612.6107212268366,9.989224194100359,0.03162277660168379,-0.4113781675905765,-1.6074977124648133
23098193,2047.0,1,202864,228955,0.59,-0.79,9.97,-0.03,-0.01,-0.0,31.29,21.180705,14.99663385090932,-432.1808164733769,10.018637631933796,0.03162277660168379,0.5404196449106413,-1.1338838478254303
23138190,2061.0,1,203004,229267,0.595,-0.8,9.97,-0.03,-0.01,-0.0,31.29,21.220702,27.46534113126347,-240.34632351307633,10.019726792682523,0.03162277660168379,0.989991525662686,-0.630333864211517
23178192,2039.0,1,203081,229435,0.595,-0.83,9.94,-0.03,-0.01,-0.0,31.29,21.260704,14.416744472497252,-91.78213091751854,9.992323303416477,0.03162277660168379,0.5195111455274203,-0.24036490924058337
23218189,2042.0,1,203148,229537,0.58,-0.81,9.97,-0.03,-0.01,-0.0,31.29,21.300701,7.162666063739582,1.9062289357487066,10.019650692514187,0.03162277660168379,0.2579579949063916,0.005559435964062232
23258193,2032.0,1,203174,229640,0.58,-0.81,9.97,-0.03,-0.01,-0.01,31.29,21.340705,13.587130273148261,56.58415285567823,10.019650692514187,0.033166247903554,0.48959856457465495,0.1490845511247709
23298193,2055.0,1,203249,229744,0.58,-0.81,9.96,-0.03,-0.01,-0.0,31.29,21.380705,23.068337254108528,96.73800254418366,10.009700295213639,0.03162277660168379,0.8314530935478185,0.2544851495294946
23338193,2027.0,1,203282,229910,0.58,-0.8,9.98,-0.03,-0.01,-0.0,31.29,21.420705,10.600520062458868,148.7063105632132,10.028798532227079,0.03162277660168379,0.3819133058463135,0.39089774273733147
23378190,2043.0,1,203345,230157,0.57,-0.82,9.97,-0.03,-0.01,-0.0,31.29,21.460702,18.072488488852283,239.77412874826854,10.019890218959487,0.03162277660168379,0.6513227019323344,0.6299433786247701
23418193,2047.0,1,203478,230313,0.57,-0.8,9.96,-0.03,-0.01,-0.0,31.29,21.500705,30.478592646772707,386.68924587968655,10.0083215376006,0.03162277660168379,1.0986373636430897,1.015583644264961
23458189,2010.0,1,203525,230519,0.57,-0.8,9.96,-0.03,-0.01,-0.0,31.29,21.540701,-7.573901455744222,570.7007103783952,10.0083215376006,0.03162277660168379,-0.27338388573928624,1.4985988127220349
23498193,2003.0,1,203650,230720,0.57,-0.8,9.96,-0.03,-0.01,-0.0,31.29,21.580705,-12.7213801932836,721.0604250661505,10.0083215376006,0.03162277660168379,-0.4589814497155423,1.8932808675435338
23538189,2027.0,1,203761,230902,0.57,-0.81,9.95,-0.03,-0.01,-0.0,31.29,21.620701,14.855354578546063,736.6498659055867,9.999174965965942,0.03162277660168379,0.5353256775281761,1.9342018852297156
23578192,2006.0,1,203735,230162,0.59,-0.82,9.96,-0.03,-0.01,-0.0,31.29,21.660704,-7.736601628261809,548.2171899198511,10.01109884078666,0.03162277660168379,-0.27925020539157785,1.4395813952400498
23618877,1984.0,1,203186,227969,0.59,-0.82,9.95,-0.03,-0.01,-0.0,31.27,21.701389,-24.458469637789104,179.6868619557964,10.001149933882603,0.03162277660168379,-0.8821741077415504,0.47221917719549045
23659193,1999.0,1,202564,226761,0.58,-0.82,9.94,-0.03,-0.01,-0.01,31.27,21.741705,-12.389974401129567,-247.2136091315827,9.990615596648686,0.033166247903554,-0.4470322779272558,-0.6483599319291019
23699193,1986.0,1,202350,226545,0.58,-0.8,9.95,-0.03,-0.01,-0.0,31.27,21.781705,-20.4092323944317,-579.3694849640403,9.998944944342878,0.03162277660168379,-0.7361747541457134,-1.5202421635948753
23739193,1987.0,1,202277,226544,0.56,-0.8,9.97,-0.03,-0.01,-0.0,31.27,21.821705,-22.079637154183484,-721.8212695796137,10.017709319001026,0.03162277660168379,-0.7964028910787224,-1.8941665434184207
23779189,1999.0,1,202287,226695,0.57,-0.81,9.95,-0.03,-0.01,-0.0,31.27,21.861701,-6.810420970102548,-682.3491013955664,9.999174965965942,0.03162277660168379,-0.24585582287520535,-1.7905553036691857
23819193,2003.0,1,202464,227281,0.58,-0.81,9.95,-0.03,-0.01,-0.01,31.27,21.901705,-4.635530997196652,-543.851230501437,9.999749996874922,0.033166247903554,-0.16743796017594595,-1.4270096266478314
23859193,1990.0,1,202594,227730,0.57,-0.82,9.97,-0.03,-0.01,-0.01,31.27,21.941705,-16.110404642878233,-396.1405116753357,10.019890218959487,0.033166247903554,-0.581176161762359,-1.0392809710932995
23899192,1985.0,1,202675,227934,0.58,-0.79,9.96,-0.03,-0.01,-0.01,31.27,21.981704,-22.413317615648964,-283.2019717108501,10.008101718108184,0.033166247903554,-0.8084340783749074,-0.7428264645501772
23939192,2000.0,1,202705,228324,0.56,-0.8,9.96,-0.03,-0.01,-0.0,31.27,22.021704,-7.904745282504816,-198.614315792926,10.00775699145418,0.03162277660168379,-0.2853127952956375,-0.5207907289839738
23979193,2000.0,1,202841,228753,0.57,-0.83,9.98,-0.03,-0.01,-0.0,31.27,22.061705,-7.25726719405584,-117.53037397035327,10.030662989055111,0.03162277660168379,-0.2619673164561121,-0.3079519587188289
24019192,1990.0,1,202990,229164,0.57,-0.81,9.95,-0.03,-0.01,-0.0,31.27,22.101704,-22.513644090478415,-27.16097717827588,9.999174965965942,0.03162277660168379,-0.812051451127684,-0.07073962233640901
24059199,1985.0,1,203133,229566,0.57,-0.81,9.94,-0.03,-0.01,-0.0,31.27,22.141711,-21.620954431311393,70.84402311684723,9.989224194100359,0.03162277660168379,-0.7798646205304208,0.1865155538893997
24099192,1987.0,1,203256,229817,0.58,-0.82,9.96,-0.03,-0.01,-0.0,31.27,22.181704,-31.776676595941755,178.0189666061798,10.01051447229362,0.03162277660168379,-1.1460394782193102,0.46784108719192175
24139192,1978.0,1,203339,230129,0.58,-0.78,9.96,-0.03,-0.01,-0.0,31.27,22.221704,-30.40242026682532,306.45632925157037,10.007317322839324,0.03162277660168379,-1.0964892731639928,0.8049787461054562
24179193,2000.0,1,203454,230478,0.58,-0.82,9.97,-0.03,-0.01,-0.0,31.27,22.261705,-22.360014552217876,458.6651205119642,10.020464061110143,0.03162277660168379,-0.8065121823885996,1.2045144769446756
24219193,1982.0,1,203647,230886,0.56,-0.8,9.94,-0.03,-0.01,-0.0,31.27,22.301705,-34.30575923039627,597.6283562957393,9.987852622060458,0.03162277660168379,-1.2372281163823482,1.569281699053879
24259195,1995.0,1,203715,231062,0.56,-0.8,9.96,-0.03,-0.01,-0.0,31.27,22.341707,-26.437923656339176,644.8439280726859,10.00775699145418,0.03162277660168379,-0.9535453289894738,1.6932187451383034
24299193,1983.0,1,203781,230933,0.57,-0.81,9.95,-0.03,-0.01,-0.0,31.27,22.381705,-45.27294787607328,524.4978663269665,9.999174965965942,0.03162277660168379,-1.6326612206439346,1.3773200947709945
24339193,1982.0,1,203483,229212,0.57,-0.81,9.98,-0.03,-0.01,-0.0,31.27,22.421705,-38.93352263268493,226.64206975371076,10.029027869140657,0.03162277660168379,-1.4040868171011045,0.595472788954043
24377193,2077.0,1,202892,227591,0.58,-0.82,9.95,-0.03,-0.01,-0.0,31.27,22.459705,39.6114401800759,-164.76588513600706,10.00056498403965,0.03162277660168379,1.427931439592571,-0.43194134408125207
24417192,2073.0,1,202624,227228,0.57,-0.81,9.96,-0.03,-0.01,-0.0,31.27,22.499704,47.038904478662346,-510.0192314326877,10.009125835955906,0.03162277660168379,1.695736194235855,-1.338203373331228
24457193,2074.0,1,202574,227252,0.595,-0.8,9.96,-0.03,-0.01,-0.0,31.27,22.539705,32.36368789007394,-693.3221099142929,10.00977647103071,0.03162277660168379,1.1666063835961828,-1.8193585609694436
24497189,2085.0,1,202585,227421,0.58,-0.81,9.96,-0.03,-0.01,-0.0,31.27,22.579701,51.3813032468648,-684.2994430355102,10.009700295213639,0.03162277660168379,1.8523057837932333,-1.7956747922745975
24537193,2085.0,1,202733,228029,0.56,-0.79,9.95,-0.03,-0.01,-0.0,31.27,22.619705,38.76109338439387,-539.69355903668,9.997009552861295,0.03162277660168379,1.3972713238620018,-1.4160960762969894
24577192,2083.0,1,203014,228654,0.57,-0.8,9.96,-0.03,-0.01,-0.0,31.27,22.659704,45.03626717815363,-352.98243055358654,10.0083215376006,0.03162277660168379,1.6235290762555918,-0.9259945088606597
24617193,2078.0,1,203144,228733,0.57,-0.81,9.94,-0.03,-0.01,-0.0,31.27,22.699705,23.919626511449124,-195.09117484440844,9.989224194100359,0.03162277660168379,0.8621471906888778,-0.5115427697691383
24657879,2007.0,1,203202,228973,0.59,-0.81,9.98,-0.03,-0.01,-0.0,31.21,22.740391,-32.11112184387785,-86.74771279198576,10.03018444496411,0.03162277660168379,-1.158098240666971,-0.22714997002137713
24697193,2047.0,1,203333,229321,0.57,-0.8,9.94,-0.03,-0.01,-0.01,31.21,22.779705,-14.681996807060935,-11.397788172685194,9.988418293203383,0.033166247903554,-0.5296734692385594,-0.029362529807429615
24737190,2043.0,1,203441,229661,0.57,-0.82,9.95,-0.03,-0.01,-0.0,31.21,22.819702,2.04417078970265,54.69931392927582,9.999989999994998,0.03162277660168379,0.07340545908778853,0.1441370018292372
24777198,2043.0,1,203553,230108,0.56,-0.81,9.96,-0.03,-0.01,-0.0,31.21,22.85971,-22.50819802273061,125.37903122719504,10.008561335177,0.03162277660168379,-0.8118550876342573,0.3296655266423875
24817193,2043.0,1,203686,230464,0.58,-0.82,9.94,-0.03,-0.01,-0.0,31.21,22.899705,-1.925852515698946,209.16267915134955,9.990615596648686,0.03162277660168379,-0.06973775567441984,0.5495908064410147
24857193,2091.0,1,203784,230808,0.58,-0.81,9.95,-0.03,-0.01,-0.0,31.21,22.939705,25.758738940623857,317.86593020783494,9.999749996874922,0.03162277660168379,0.928458253665012,0.8349280231406204
24897193,2065.0,1,203884,231138,0.56,-0.8,9.96,-0.03,-0.01,-0.01,31.21,22.979705,14.943729339575263,457.6030804615286,10.00775699145418,0.033166247903554,0.5385121191242115,1.2017267079582878
24937193,2077.0,1,203987,231447,0.595,-0.8,9.97,-0.03,-0.01,-0.01,31.21,23.019705,14.870147358412629,603.7221444762055,10.019726792682523,0.033166247903554,0.5358590462019793,1.585277398737853
24977189,2081.0,1,204087,231659,0.58,-0.8,9.96,-0.03,-0.01,-0.0,31.21,23.059701,26.60098490410946,688.2543075043241,10.008896043020929,0.03162277660168379,0.9588262856787754,1.8071674699695508
25017193,2091.0,1,204161,231797,0.5549999999999999,-0.8,9.94,-0.03,-0.01,-0.0,31.21,23.099705,32.656196571301,628.0854161441233,9.987573529141098,0.03162277660168379,1.1771530806192776,1.649229010670855
25057189,2082.0,1,204038,230729,0.59,-0.82,9.94,-0.03,-0.01,-0.0,31.21,23.139701,26.28772918990448,386.153103776789,9.991201128993449,0.03162277660168379,0.9475315333500113,1.0141763147333285
25097193,2058.0,1,203473,228834,0.595,-0.82,9.95,-0.03,-0.01,-0.01,31.21,23.179705,2.608754469903286,17.4895073030195,10.00144614543317,0.033166247903554,0.09376209600632732,0.04646427766067074
25137190,2059.0,1,202932,228162,0.57,-0.81,9.96,-0.03,-0.01,-0.0,31.21,23.219702,5.165247680766935,-347.1927352520698,10.009125835955906,0.03162277660168379,0.18593905028840427,-0.9107970283178272
25177193,2064.0,1,202892,228067,0.5549999999999999,-0.8,9.95,-0.03,-0.01,-0.0,31.21,23.259705,11.904910320209309,-576.3920295424346,9.997525943952333,0.03162277660168379,0.428944418874003,-1.5124265846256073
25217189,2047.0,1,202911,228101,0.58,-0.82,9.96,-0.03,-0.01,-0.0,31.21,23.299701,-3.97602357627397,-613.9230143932386,10.01051447229362,0.03162277660168379,-0.14365875155972452,-1.6109423755816552
25257192,2063.0,1,202982,228546,0.57,-0.82,9.95,-0.03,-0.01,-0.0,31.21,23.339704,16.382237409728543,-499.1419603830156,9.999989999994998,0.03162277660168379,0.590378985835789,-1.3096514191216169
25297190,2080.0,1,203113,229045,0.57,-0.82,9.97,-0.03,-0.01,-0.01,31.21,23.379702,31.90112259879237,-324.9859983593959,10.019890218959487,0.033166247903554,1.149928123108046,-0.8525061452453104
25337193,2032.0,1,203254,229322,0.58,-0.8,9.95,-0.03,-0.01,-0.0,31.21,23.419705,-7.849536464386296,-174.96999044168052,9.998944944342878,0.03162277660168379,-0.28332218539217563,-0.4587262928158358
25377189,2013.0,1,203292,229390,0.59,-0.81,9.97,-0.03,-0.01,-0.0,31.21,23.459701,-30.50626860488651,-84.554098455518,10.02023452819344,0.03162277660168379,-1.1002336302657674,-0.22139191032034009
25417193,2017.0,1,203309,229423,0.57,-0.8,9.95,-0.03,-0.01,-0.01,31.21,23.499705,-17.197621306016373,-41.914515239970235,9.998369867133341,0.033166247903554,-0.6203768606834177,-0.10946646303419148
25457190,2019.0,1,203331,229588,0.57,-0.81,9.96,-0.03,-0.01,-0.0,31.21,23.539702,-16.753117553519836,-11.763975220086758,10.009125835955906,0.03162277660168379,-0.6043498272854908,-0.030323741104069806
25497193,2015.0,1,203427,229934,0.57,-0.8,9.97,-0.03,-0.01,-0.01,31.21,23.579705,-15.518433540574923,42.39314708246939,10.018273304317466,0.033166247903554,-0.5598320435767726,0.11183431205518361
25537190,2029.0,1,203527,230145,0.56,-0.8,9.99,-0.03,-0.01,-0.0,31.21,23.619702,3.3382496298597704,147.1407292743159,10.037614258378332,0.03162277660168379,0.1200647835012763,0.38678821884407816
25577193,2029.0,1,203626,230300,0.57,-0.82,10.0,-0.03,-0.01,-0.0,31.21,23.659705,1.632576083228495,310.19188591534123,10.04974129020245,0.03162277660168379,0.058564994704706455,0.8147842793430056
25617189,2017.0,1,203714,230530,0.58,-0.82,9.97,-0.03,-0.01,-0.0,31.21,23.699701,1.045693716023835,504.65121586603016,10.020464061110143,0.03162277660168379,0.03740435602164668,1.325224247146429
25657193,2035.0,1,203801,230757,0.59,-0.79,9.95,-0.03,-0.01,-0.01,31.21,23.739705,12.648310336621446,657.7102009897997,9.998734919978626,0.033166247903554,0.4557484600640703,1.726991667914634
25697912,1986.0,1,203834,230905,0.58,-0.8,9.96,-0.03,-0.01,-0.01,31.19,23.780424,-22.87966648259137,670.0861214753745,10.008896043020929,0.033166247903554,-0.8252487595189761,1.7594774553324786
25738193,1967.0,1,203868,230339,0.57,-0.83,9.96,-0.03,-0.01,-0.0,31.19,23.820705,-47.96386661078987,474.95069980292146,10.010764206592823,0.03162277660168379,-1.7296850234581658,1.2472628015997298
25778192,1982.0,1,203376,228005,0.59,-0.82,9.93,-0.03,-0.01,-0.0,31.19,23.860704,-22.094911453441526,101.1637874720186,9.981252426424252,0.03162277660168379,-0.7969536214223104,0.26610247597323894
25818192,1984.0,1,202656,226248,0.58,-0.81,9.96,-0.03,-0.01,-0.0,31.19,23.900704,-22.686938546778478,-318.44174990983817,10.009700295213639,0.03162277660168379,-0.8182997584213739,-0.8353280238934734
25858192,1981.0,1,202381,226008,0.56,-0.82,9.96,-0.03,-0.01,-0.01,31.19,23.940704,-19.697417540701895,-617.7776383229881,10.009375604901637,0.033166247903554,-0.7105095480146203,-1.6210604507344109
25898230,2006.0,1,202381,226154,0.58,-0.81,9.94,-0.03,-0.01,-0.0,31.19,23.980742,7.847063917939451,-700.2026617486945,9.989799797793747,0.03162277660168379,0.282634653326314,-1.8374194514276814
25938192,1999.0,1,202536,226561,0.57,-0.83,9.97,-0.03,-0.01,-0.01,31.19,24.020704,0.17804032095936798,-591.8152601878226,10.020713547447608,0.033166247903554,0.006120233306324576,-1.5529113140343374
25978192,1984.0,1,202683,227067,0.57,-0.8,9.95,-0.03,-0.01,-0.01,31.19,24.060704,-5.859286837056729,-405.5289602851168,9.998369867133341,0.033166247903554,-0.21156171752599953,-1.0639248871621043
