timestamp_us,ecg,leads,ir,red,accX,accY,accZ,gyroX,gyroY,gyroZ,temp,time_sec,ecg_filtered,ppg_filtered,accel_magnitude,gyro_magnitude,ecg_norm,ppg_norm
1948957,1679.5,1,199414.0,231825,0.49,-0.84,9.919999999999998,-0.03,-0.01,-0.0,31.81,0.030471,3.762788392314446,-49.035379605109036,9.96755235752489,0.03162277660168379,0.07470626728515235,-0.08320656828792611
1989198,1679.5,1,198885.0,230491,0.49,-0.83,9.94,-0.03,-0.01,-0.0,31.81,0.070712,-4.007247185923402,-280.9637789722822,9.986621050185091,0.03162277660168379,-0.06668008994755138,-0.49748733146007207
2029187,1679.5,1,198611.0,230368,0.51,-0.87,9.94,-0.03,-0.01,-0.0,31.81,0.110701,-12.74763388769103,-421.7736406216368,9.991025973342277,0.03162277660168379,-0.2257233046310483,-0.7490081331619248
2069191,1679.5,1,198689.0,230535,0.51,-0.86,9.96,-0.03,-0.01,0.0,31.81,0.150705,-20.558851441273397,-453.24737002597647,10.010059939880481,0.03162277660168379,-0.3678590238736142,-0.8052279004395883
2109188,1679.5,1,198613.0,230153,0.48,-0.89,9.98,-0.03,-0.01,-0.0,31.81,0.190702,-28.816375383023885,-431.96099000418474,10.031096649918194,0.03162277660168379,-0.518115894402734,-0.7672052271289374
2149190,1679.5,1,198374.0,229487,0.49,-0.85,9.99,-0.03,-0.01,-0.0,31.81,0.230704,-38.79964577166389,-426.75295179086066,10.03806256206844,0.03162277660168379,-0.6997750669131177,-0.7579023989650183
2189187,1679.5,1,198063.0,228825,0.53,-0.82,9.95,-0.03,-0.01,-0.0,31.81,0.270701,-45.41245761111874,-454.77272051111726,9.997789755741016,0.03162277660168379,-0.8201041654907917,-0.8079525489294385
2229190,1679.5,1,197973.0,228765,0.5,-0.88,9.96,-0.03,-0.01,0.0,31.81,0.310704,-57.27203016053269,-473.4634942347013,10.011293622704311,0.03162277660168379,-1.0359052058096936,-0.841338835488618
2269187,1679.5,1,197965.0,229062,0.49,-0.85,9.97,-0.03,-0.01,0.0,31.81,0.350701,-65.01468041750299,-426.27816802570885,10.01815851341952,0.03162277660168379,-1.1767932499038436,-0.7570543192080523
2309190,1679.5,1,197971.0,229560,0.51,-0.85,9.95,-0.03,-0.01,0.0,31.81,0.390704,-74.04471973609,-294.70691929214263,9.999254972246682,0.03162277660168379,-1.3411070876034967,-0.5220359364417331
2349187,1679.5,1,198051.0,229974,0.51,-0.85,9.96,-0.03,-0.01,0.0,31.81,0.430701,-88.5323395332511,-115.02426712370593,10.00920576269666,0.03162277660168379,-1.6047290192494716,-0.20107883730145765
2389190,1679.5,1,198027.0,230150,0.47,-0.86,9.99,-0.03,-0.01,-0.0,31.81,0.470704,-90.51561723614269,45.42746439270769,10.037957959664904,0.03162277660168379,-1.6408174524322034,0.08552714094995116
2429187,1679.5,1,198030.0,230156,0.5,-0.88,9.96,-0.03,-0.01,-0.0,31.81,0.510701,-112.0322239226854,129.55574939480576,10.011293622704311,0.03162277660168379,-2.032341353293033,0.23580080389994
2469190,1679.5,1,197945.0,229934,0.52,-0.85,9.95,-0.03,-0.01,-0.0,31.81,0.550704,-112.29825945465319,122.75202920744628,9.999769997354939,0.03162277660168379,-2.0371822313534547,0.2236476980305431
2509187,1727.0,1,197797.0,229354,0.47,-0.85,9.98,-0.03,-0.01,0.0,31.81,0.590701,-82.25554580333399,60.4390700749229,10.027153135362001,0.03162277660168379,-1.4905142268411053,0.11234153485529569
2549191,1766.0,1,197661.0,229158,0.5,-0.87,9.94,-0.03,-0.01,-0.0,31.81,0.630705,-55.353487262748665,8.365948171032628,9.990520506960586,0.03162277660168379,-1.0009947103838959,0.01932622175882956
2589187,1813.0,1,197646.0,229298,0.52,-0.89,9.95,-0.03,-0.01,0.0,31.81,0.670701,-10.776051661431739,24.285812448686826,10.00324947204657,0.03162277660168379,-0.1898476865404084,0.04776298733190777
2629191,1839.0,1,197563.0,229580,0.47,-0.85,9.98,-0.03,-0.01,0.0,31.81,0.710705,-9.735343276388154,119.63399832905263,10.027153135362001,0.03162277660168379,-0.17091058309715587,0.21807813339154328
2669187,1920.0,1,197699.0,229833,0.48,-0.85,9.99,-0.03,-0.01,0.0,31.81,0.750701,70.55266591641207,244.92597111934,10.037579389474336,0.03162277660168379,1.2900388597894712,0.4418801957889553
2709190,1987.5,1,197776.0,229738,0.51,-0.87,9.96,-0.03,-0.01,-0.0,31.81,0.790704,129.25187552665545,314.7748844478663,10.01092403327485,0.03162277660168379,2.358150753958353,0.5666474136003273
2749187,1866.0,1,197654.0,229457,0.51,-0.87,9.98,-0.03,-0.01,-0.0,31.81,0.830701,-28.759051055410332,264.7835713540881,10.03082249867876,0.03162277660168379,-0.5170728003550318,0.4773507194611987
2789191,1840.0,1,197578.0,228971,0.47,-0.85,9.98,-0.03,-0.01,-0.0,31.81,0.870705,-12.644205315039754,105.38564140855138,10.027153135362001,0.03162277660168379,-0.22384128118679295,0.19262708817637994
2829188,1987.5,1,197322.0,228328,0.48,-0.83,9.96,-0.03,-0.01,-0.0,31.81,0.910702,45.79428908311065,-69.75101712007638,10.0060431740024,0.03162277660168379,0.8395265453723829,-0.12020975609379558
2869190,1792.0,1,197148.0,228100,0.49,-0.85,9.96,-0.03,-0.01,-0.0,31.81,0.950704,-66.53188623363383,-137.17381018453514,10.008206632559103,0.03162277660168379,-1.2044008716907775,-0.24064333060280457
2909187,1987.0,1,197351.0,228877,0.52,-0.85,9.96,-0.03,-0.01,-0.0,31.81,0.990701,24.532603717864138,-29.25585577105144,10.009720275811908,0.03162277660168379,0.45264128440400997,-0.047875508135251946
2949190,1987.5,1,197624.0,229841,0.51,-0.84,9.96,-0.03,-0.01,-0.0,31.81,1.030704,95.59734914272373,208.40967133839374,10.008361504262323,0.03162277660168379,1.7457609081328143,0.3766531663145542
2989873,1987.5,1,197948.0,230558,0.51,-0.86,9.96,-0.03,-0.01,0.0,31.83,1.071387,30.553071145486296,433.928630417393,10.010059939880481,0.03162277660168379,0.5621918713812047,0.7794851038088784
3028215,1987.5,1,198024.0,230484,0.47,-0.87,9.98,-0.03,-0.01,-0.0,31.83,1.109729,51.893042601862646,493.7221997893582,10.02886833097334,0.03162277660168379,0.9505016541725969,0.886291021582614
3068187,1987.5,1,197896.0,229808,0.48,-0.85,9.95,-0.03,-0.01,-0.0,31.83,1.149701,37.56900416400773,318.21897277683587,9.997769751299536,0.03162277660168379,0.6898563076748616,0.5727993964762964
3108190,1987.5,1,197621.0,228540,0.51,-0.83,9.96,-0.03,-0.01,-0.0,31.83,1.189704,22.64945556001148,-35.839333481696166,10.007527167087781,0.03162277660168379,0.4183748443745749,-0.059635207153287524
3148187,1987.5,1,197168.0,227369,0.48,-0.84,9.95,-0.03,-0.01,-0.0,31.83,1.229701,30.875633569923416,-422.0978235729718,9.996924527073313,0.03162277660168379,0.5680613330731237,-0.7495872030854569
3188190,1987.5,1,197101.0,227433,0.47,-0.84,9.94,-0.03,-0.01,-0.0,31.83,1.269704,12.40053432172001,-691.1569282914074,9.98649588193977,0.03162277660168379,0.23188179362131808,-1.2301924741316408
3228187,1987.5,1,197154.0,227592,0.52,-0.88,9.96,-0.03,-0.01,-0.0,31.83,1.309701,16.4633834300765,-767.6906942799585,10.012312420215423,0.03162277660168379,0.3058108547733054,-1.3669004713785835
3268191,1987.5,1,197311.0,228276,0.49,-0.88,9.96,-0.03,-0.01,-0.0,31.83,1.349705,10.498040895508723,-673.0768524651206,10.010799168897556,0.03162277660168379,0.1972633401428615,-1.1978970431625926
3308186,1987.5,1,197643.0,228873,0.5,-0.84,9.97,-0.03,-0.01,0.0,31.83,1.3897,5.93884025035395,-491.4203021044145,10.017809141723554,0.03162277660168379,0.1143024882110077,-0.8734140797825399
3349190,1987.5,1,197827.0,229184,0.49,-0.83,10.0,-0.03,-0.01,-0.0,31.83,1.430704,8.699767991158069,-311.9300239551355,10.04634261808744,0.03162277660168379,0.1645413207008251,-0.5528006076223524
3389187,1987.5,1,198088.0,229818,0.51,-0.86,9.94,-0.03,-0.01,-0.0,31.83,1.470701,3.395567262114336,-184.55910989932804,9.990160158876332,0.03162277660168379,0.06802417974834794,-0.3252850484025601
3429190,1987.5,1,198317.0,230558,0.5,-0.87,9.99,-0.03,-0.01,-0.0,31.83,1.510704,6.915724276482805,-106.06641530063108,10.040268920701278,0.03162277660168379,0.13207822070314898,-0.1850779262454065
3469187,1987.5,1,198583.0,231180,0.51,-0.84,9.97,-0.03,-0.01,0.0,31.83,1.550701,6.425112578684355,-33.79919843661879,10.018313231278007,0.03162277660168379,0.12315087409462723,-0.05599102771793148
3509190,1987.5,1,198814.0,231833,0.4550000000000001,-0.83,9.94,-0.03,-0.01,0.0,31.83,1.590704,8.078699788130395,82.45634561533963,9.984964947359606,0.03162277660168379,0.15324014068241157,0.15166976606261323
3549188,1987.5,1,198996.0,232303,0.49,-0.85,9.95,-0.03,-0.01,-0.0,31.83,1.630702,12.22046352332601,261.7967121154791,9.998254847722174,0.03162277660168379,0.22860516071886156,0.4720154594057894
3589190,1987.5,1,199303.0,233004,0.52,-0.85,9.96,-0.03,-0.01,-0.0,31.83,1.670704,13.460851936137036,465.2690515490456,10.009720275811908,0.03162277660168379,0.25117571364299357,0.835466749954776
3629187,1987.5,1,199670.0,234266,0.48,-0.84,9.97,-0.03,-0.01,0.0,31.83,1.710701,19.79966467720574,604.6794561787502,10.01683083614773,0.03162277660168379,0.3665190262463583,1.0844877796420367
3669190,1987.5,1,199938.0,234247,0.49,-0.83,9.95,-0.03,-0.01,0.0,31.83,1.750704,22.736754189697443,594.6193502159357,9.996574413267776,0.03162277660168379,0.4199633615851363,1.0665179734982473
3709187,1987.5,1,199726.0,233524,0.49,-0.84,9.95,-0.03,-0.01,-0.0,31.83,1.790701,28.747862603120517,417.8945424063171,9.997409664508101,0.03162277660168379,0.5293436485795867,0.7508443067520171
3749191,1987.5,1,199592.0,233267,0.5,-0.87,9.94,-0.03,-0.01,0.0,31.83,1.830705,35.265103177428514,151.6760728758212,9.990520506960586,0.03162277660168379,0.6479336981015421,0.2753131038956898
3787187,1987.5,1,199430.0,233331,0.49,-0.88,9.94,-0.03,-0.01,-0.0,31.83,1.868701,38.89770999004249,-74.55426291320325,9.990900860282819,0.03162277660168379,0.7140339159606052,-0.12878952613622896
3827190,1987.5,1,199461.0,233546,0.49,-0.81,9.96,-0.03,-0.01,0.0,31.83,1.908704,49.333251288542435,-162.32906291773656,10.004888804979293,0.03162277660168379,0.9039227723358239,-0.2855767554379432
3867188,1987.5,1,199699.0,234192,0.5,-0.84,9.95,-0.03,-0.01,-0.0,31.83,1.948702,51.741001514041905,-105.06275599967186,9.997904780502763,0.03162277660168379,0.9477350599478704,-0.18328514561870995
3907190,1987.5,1,200011.0,234840,0.5,-0.88,9.93,-0.03,-0.01,-0.0,31.83,1.988704,61.26271520577354,19.960028233634034,9.981447790776647,0.03162277660168379,1.1209955810782006,0.040036080274299106
3947194,1987.5,1,200167.0,235286,0.51,-0.86,9.94,-0.03,-0.01,-0.0,31.83,2.028708,69.84051775654056,118.46765044023103,9.990160158876332,0.03162277660168379,1.2770803561738364,0.215994751214873
3987191,1987.5,1,200224.0,235662,0.54,-0.83,9.95,-0.03,-0.01,0.0,31.83,2.068705,68.20078661705863,148.76994083895497,9.999149963871929,0.03162277660168379,1.2472432196101761,0.2701220423379116
4027881,1987.5,1,200296.0,236048,0.46,-0.84,9.94,-0.03,-0.01,0.0,31.83,2.109395,92.41104133113501,140.43810158358158,9.98603024229348,0.03162277660168379,1.6877817071412011,0.25523934261350567
4068190,1984.0,1,200424.0,236449,0.49,-0.85,9.96,-0.03,-0.01,-0.0,31.83,2.149704,69.27451988501629,153.96841352618026,10.008206632559103,0.03162277660168379,1.2667812556806017,0.279407784136111
4108187,1847.0,1,200558.0,237031,0.53,-0.88,9.94,-0.03,-0.01,0.0,31.83,2.189701,-27.73604969379846,219.9439404799377,9.992942509591456,0.03162277660168379,-0.4984579002678946,0.39725618791790207
4148213,1790.0,1,200721.0,237319,0.49,-0.84,9.94,-0.03,-0.01,-0.0,31.83,2.229727,-115.56009062648248,307.4367375179789,9.987457133825405,0.03162277660168379,-2.09653568252486,0.5535396910502729
4188187,1679.5,1,200817.0,237508,0.47,-0.86,9.96,-0.03,-0.01,-0.0,31.83,2.269701,-184.46025476777137,344.42006934760957,10.008101718108184,0.03162277660168379,-3.3502678080193826,0.6196009538228935
4228190,1679.5,1,200842.0,237323,0.52,-0.87,9.97,-0.03,-0.01,-0.0,31.83,2.309704,-208.49040622443155,272.5221670425359,10.021387129534514,0.03162277660168379,-3.787529072011928,0.4911737412922397
4268188,1679.5,1,200679.0,236409,0.5,-0.86,9.96,-0.03,-0.01,-0.0,31.83,2.349702,-184.29543889042833,93.60343731749661,10.009555434683401,0.03162277660168379,-3.3472687591376875,0.17158119420215964
4308190,1679.5,1,200376.0,235970,0.47,-0.84,9.95,-0.03,-0.01,-0.0,31.83,2.389704,-185.81927191947022,-127.42095049283542,9.996449369651206,0.03162277660168379,-3.3749969720702686,-0.2232223413353725
4348188,1679.5,1,200276.0,235793,0.51,-0.85,9.96,-0.03,-0.01,-0.0,31.83,2.429702,-189.17266352200795,-305.3186861079873,10.00920576269666,0.03162277660168379,-3.436016489713851,-0.5409911435964772
4387190,1679.5,1,200217.0,235828,0.5,-0.86,9.96,-0.03,-0.01,-0.0,31.83,2.468704,-165.89606965881293,-389.45514404020815,10.009555434683401,0.03162277660168379,-3.012467230258773,-0.6912794053956706
4427187,1679.5,1,200202.0,235998,0.5,-0.89,9.97,-0.03,-0.01,0.0,31.83,2.508701,-190.79271575715885,-389.51473892798464,10.022125523061463,0.03162277660168379,-3.4654955418685427,-0.6913858564195925
4467190,1679.5,1,200289.0,236149,0.5,-0.84,9.96,-0.03,-0.01,-0.0,31.83,2.548704,-156.63107678950152,-356.0525400516031,10.007856913445556,0.03162277660168379,-2.843878093389467,-0.6316141970378584
4507187,1895.0,1,200240.0,236023,0.51,-0.83,9.96,-0.03,-0.01,-0.0,31.83,2.588701,31.994601735051255,-336.02633594173267,10.007527167087781,0.03162277660168379,0.5884224795741628,-0.5958425056679547
4547191,1987.5,1,200172.0,235858,0.49,-0.86,9.95,-0.03,-0.01,-0.0,31.83,2.628705,148.46243684120603,-340.2449410535723,9.999109960391474,0.03162277660168379,2.7077130252389416,-0.603377964671783
4587188,1987.5,1,200081.0,235833,0.5,-0.84,9.98,-0.03,-0.01,-0.0,31.83,2.668702,137.43950266894365,-345.461868069397,10.027761465052906,0.03162277660168379,2.5071357572278323,-0.6126966704078047
4627191,1987.5,1,200116.0,235756,0.51,-0.84,9.95,-0.03,-0.01,-0.0,31.83,2.708705,141.40625719122804,-323.2646450900871,9.998409873574897,0.03162277660168379,2.5793162467886455,-0.57304700912759
4667187,1987.5,1,200127.0,235687,0.5,-0.85,9.94,-0.03,-0.01,-0.0,31.83,2.748701,146.31748397659462,-267.9743610244466,9.98879872657368,0.03162277660168379,2.6686826927636766,-0.4742850587100581
4707191,1987.5,1,200078.0,235571,0.47,-0.87,9.97,-0.03,-0.01,-0.0,31.83,2.788705,139.71509118587596,-201.40231740949704,10.018917107152848,0.03162277660168379,2.5485431829377925,-0.3553711304891822
4747188,1987.5,1,200048.0,235476,0.49,-0.84,9.97,-0.03,-0.01,-0.0,31.83,2.828702,145.49474641951784,-154.13221617702354,10.017315009522262,0.03162277660168379,2.6537118647690896,-0.2709351853127956
4787190,1987.5,1,200007.0,235227,0.52,-0.86,9.98,-0.03,-0.01,-0.0,31.83,2.868704,145.29360315217463,-140.41793437958682,10.030473568082417,0.03162277660168379,2.65005178965551,-0.24643812870005502
4827188,1987.5,1,199844.0,235186,0.47,-0.84,9.94,-0.03,-0.01,-0.0,31.83,2.908702,138.1797977601575,-145.64235743574974,9.98649588193977,0.03162277660168379,2.5206064325124,-0.25577022419481515
4867191,1987.5,1,199767.0,234894,0.49,-0.85,9.95,-0.03,-0.01,-0.0,31.83,2.948705,152.40862263358122,-134.48772235425977,9.998254847722174,0.03162277660168379,2.7795192388050722,-0.2358453217375246
4907188,1987.5,1,199721.0,234714,0.51,-0.86,9.95,-0.03,-0.01,-0.0,31.83,2.988702,132.6728778576531,-73.60424089467483,10.000109999395006,0.03162277660168379,2.420400540692796,-0.12709255479533157
4947190,1857.0,1,199723.0,234713,0.49,-0.86,9.96,-0.03,-0.01,0.0,31.83,3.028704,23.180027769639963,46.40514135317072,10.009060895009082,0.03162277660168379,0.42802932680427963,0.08727351077107526
4987187,1783.0,1,199728.0,234832,0.49,-0.85,9.95,-0.03,-0.01,0.0,31.83,3.068701,-69.12687500439311,203.5658486677414,9.998254847722174,0.03162277660168379,-1.2516202191008488,0.3680009160591143
5027191,1734.0,1,199744.0,235101,0.53,-0.86,9.96,-0.03,-0.01,0.0,31.83,3.108705,-106.96737377873605,356.02770749681383,10.01109884078666,0.03162277660168379,-1.9401795215263706,0.6403350303922121
5067874,1679.5,1,199729.0,235278,0.51,-0.86,9.97,-0.03,-0.01,0.0,31.99,3.149388,-161.73546497966288,465.24195647152595,10.020009980034951,0.03162277660168379,-2.9367593736412387,0.8354183515291252
5108191,1679.5,1,199750.0,235307,0.5,-0.85,9.97,-0.03,-0.01,0.0,31.99,3.189705,-173.1635543355133,515.5463899097739,10.018652604018166,0.03162277660168379,-3.144708990844918,0.9252743550741981
5148187,1679.5,1,199488.0,234538,0.52,-0.88,9.97,-0.03,-0.01,-0.0,31.99,3.229701,-148.34400905949346,515.782381992743,10.022260224121103,0.03162277660168379,-2.69308363348144,0.9256958945687223
5188191,1679.5,1,199092.0,234160,0.48,-0.84,9.92,-0.03,-0.01,-0.0,31.99,3.269705,-181.02829756347413,482.7446505640626,9.967065766814223,0.03162277660168379,-3.287818682477004,0.8666824377126605
5228186,1679.5,1,199128.0,233993,0.48,-0.86,9.97,-0.03,-0.01,-0.0,31.99,3.3097,-141.4300025822606,426.1742944908809,10.018527835964724,0.03162277660168379,-2.5672738891300546,0.7656339660685499
5268190,1786.0,1,198995.0,233381,0.52,-0.84,9.97,-0.03,-0.01,-0.0,31.99,3.349704,-69.51007367883388,357.08571315465537,10.018827276682636,0.03162277660168379,-1.258593039769434,0.6422248868848494
5308188,1723.0,1,198713.0,233021,0.49,-0.83,9.96,-0.03,-0.01,-0.0,31.99,3.389702,-102.81926976846145,312.7430457033357,10.00652786934609,0.03162277660168379,-1.8646991315680916,0.5630180533838828
5348191,1827.0,1,198551.0,232896,0.52,-0.85,9.93,-0.03,-0.01,0.0,31.99,3.429705,-11.036433735558173,360.36328940175656,9.979869738628857,0.03162277660168379,-0.19458569225206068,0.6480794385167707
5387168,1987.5,1,198567.0,233411,0.48,-0.81,9.94,-0.03,-0.01,0.0,31.99,3.468682,153.2236292600826,551.254211281748,9.98449297661128,0.03162277660168379,2.7943493920110987,0.9890572446623624
5427171,1987.5,1,198685.0,233683,0.46,-0.81,10.0,-0.03,-0.01,0.0,31.99,3.508685,165.52598950148533,848.6559890586725,10.043291293196669,0.03162277660168379,3.018207556157478,1.5202894516812322
5467168,1987.5,1,198778.0,233532,0.47,-0.85,9.96,-0.03,-0.01,0.0,31.99,3.548682,156.71270822217122,1095.7263206411599,10.007247373778666,0.03162277660168379,2.857837925567962,1.9616174037753793
5507191,1962.0,1,198592.0,233219,0.49,-0.83,9.94,-0.03,-0.01,-0.0,31.99,3.588705,142.9248045908502,1076.35522571042,9.986621050185091,0.03162277660168379,2.6069482805104864,1.9270158973911513
5547188,1910.0,1,198368.0,232641,0.48,-0.85,9.96,-0.03,-0.01,0.0,31.99,3.628702,98.81252433116248,651.3612562627345,10.007722018521498,0.03162277660168379,1.8042653902784958,1.1678728752914307
5587225,1942.0,1,197394.0,229664,0.48,-0.85,9.97,-0.03,-0.01,-0.0,31.99,3.668739,116.99588192413387,-122.3269283312602,10.017674380813144,0.03162277660168379,2.1351362938211143,-0.21412317368504852
5627168,1876.0,1,195890.0,227687,0.46,-0.83,9.96,-0.03,-0.01,-0.0,31.99,3.708682,88.46840967298316,-992.4835170562674,10.005103697613533,0.03162277660168379,1.6160401658775194,-1.7684353520982032
5667171,1831.0,1,195223.0,226145,0.46,-0.81,9.99,-0.03,-0.01,-0.0,31.99,3.748685,7.971061529269539,-1652.628780702829,10.033334440752984,0.03162277660168379,0.1512815162763881,-2.9476160146397126
5707187,1838.0,1,195082.75,225461,0.48,-0.83,9.99,-0.03,-0.01,-0.0,31.99,3.788701,58.79085276316525,-1926.5027581228246,10.035905539611262,0.03162277660168379,1.076016684543987,-3.436821824226332
5747191,1810.0,1,195082.75,224889,0.47,-0.85,9.94,-0.03,-0.01,0.0,31.99,3.828705,14.287599311618607,-1857.7907549434096,9.987341988737544,0.03162277660168379,0.26621950573300956,-3.314085405599179
5787224,1679.5,1,195082.75,224004,0.4550000000000001,-0.84,10.000000000000004,-0.03,-0.01,-0.0,31.99,3.868738,-118.47811986696568,-1645.1624824808166,10.045527611828065,0.03162277660168379,-2.1496331903105323,-2.934279382584622
5827191,1679.5,1,195082.75,223455,0.49,-0.82,9.94,-0.03,-0.01,-0.0,31.99,3.908705,-64.78326723429386,-1484.4694302664984,9.985794910772,0.03162277660168379,-1.1725823725326767,-2.6472423466310517
5867187,1729.0,1,195082.75,223830,0.49,-0.85,9.96,-0.03,-0.01,-0.0,31.99,3.948701,-97.6395547862814,-1437.3983630868595,10.008206632559103,0.03162277660168379,-1.7704471779624706,-2.5631619248814235
5907191,1679.5,1,195082.75,225097,0.49,-0.84,9.96,-0.03,-0.01,0.0,31.99,3.988705,-23.61246639575594,-1408.8888774947136,10.00736228983442,0.03162277660168379,-0.4234236979936147,-2.5122370209844185
5947188,1987.5,1,195082.75,226119,0.49,-0.85,9.96,-0.03,-0.01,0.0,31.99,4.028702,164.11651564557746,-1233.1043050311584,10.008206632559103,0.03162277660168379,2.992560263800197,-2.198242844191947
5987191,1712.0,1,195454.0,227242,0.48,-0.83,9.99,-0.03,-0.01,0.0,31.99,4.068705,2.945218761256349,-799.92991543272,10.035905539611262,0.03162277660168379,0.0598294767279584,-1.424487593868474
6027188,1679.5,1,195960.0,229165,0.51,-0.84,9.94,-0.03,-0.01,-0.0,31.99,4.108702,-94.03557072406551,-134.28911837199558,9.988458339503648,0.03162277660168379,-1.7048677899467226,-0.2354905665218376
6067191,1679.5,1,197075.0,231601,0.5,-0.83,9.93,-0.03,-0.01,-0.0,31.99,4.148705,-67.95298732115037,622.6592113502257,9.977163925685495,0.03162277660168379,-1.230259737329198,1.1166040134211308
6107874,1679.5,1,197674.0,232453,0.49,-0.82,9.96,-0.03,-0.01,0.0,32.05,4.189388,-41.33505352486464,1307.3622955917917,10.005703373576493,0.03162277660168379,-0.7459102567349777,2.3396509410931836
6148191,1830.0,1,197878.0,232745,0.48,-0.85,9.96,-0.03,-0.01,0.0,32.05,4.229705,68.86396319832708,1821.7574770020392,10.007722018521498,0.03162277660168379,1.2593106187981797,3.2584863614564314
6188188,1730.0,1,198083.0,233585,0.47,-0.85,9.97,-0.03,-0.01,-0.0,32.05,4.269702,12.262346088142497,2147.5076080056774,10.017200207642853,0.03162277660168379,0.22936727090630402,3.8403556506156558
6228191,1679.5,1,198476.0,234203,0.51,-0.85,9.99,-0.03,-0.01,-0.0,32.05,4.309705,-43.1629508662977,2295.519876341973,10.03905872081641,0.03162277660168379,-0.7791713330708951,4.104741709642974
6268187,1679.5,1,198579.0,234203,0.48,-0.85,9.97,-0.03,-0.01,-0.0,32.05,4.349701,-79.06856572597502,2259.8150264460605,10.017674380813144,0.03162277660168379,-1.4325227930601578,4.040964127836754
6308191,1679.5,1,198351.0,233586,0.48,-0.82,9.96,-0.03,-0.01,0.0,32.05,4.389705,9.547325060865266,2024.9640298986208,10.005218638290721,0.03162277660168379,0.17996377345874442,3.6214628923395753
6348168,1987.5,1,197828.0,232765,0.48,-0.84,9.96,-0.03,-0.01,0.0,32.05,4.429682,199.32261385989878,1607.5297271297175,10.006877634906905,0.03162277660168379,3.6331830677473262,2.875823281161321
6388170,1679.5,1,197209.0,231533,0.51,-0.85,9.97,-0.03,-0.01,0.0,32.05,4.469684,22.40303843579351,1076.9918653383713,10.019156651135864,0.03162277660168379,0.41389094990560793,1.9281530912477596
6428187,1679.5,1,197025.0,231147,0.4550000000000001,-0.82,9.95,-0.03,-0.01,-0.0,32.05,4.509701,-93.00325436897482,531.4478960280027,9.994094506257182,0.03162277660168379,-1.686083390893673,0.9536783284910852
6468191,1679.5,1,196529.0,229492,0.4550000000000001,-0.7949999999999999,9.96,-0.03,-0.01,-0.0,32.05,4.549705,-9.876926739631463,52.17077298800422,10.00203229348916,0.03162277660168379,-0.17348688663023465,0.09757233696211379
6508188,1679.5,1,196011.0,228934,0.5,-0.81,9.93,-0.03,-0.01,-0.0,32.05,4.589702,-54.16420502230412,-323.9362874304578,9.975520036569522,0.03162277660168379,-0.9793541037219456,-0.5742467263769941
6548171,1699.0,1,196167.0,229423,0.47,-0.84,9.94,-0.03,-0.01,0.0,32.05,4.629685,-29.986315031236803,-597.1078329111682,9.98649588193977,0.03162277660168379,-0.5394045363114303,-1.0621978209710663
6588168,1679.5,1,196104.0,229135,0.4550000000000001,-0.82,9.97,-0.03,-0.01,0.0,32.05,4.669682,-30.92659667202784,-776.7421545300597,10.014006440980554,0.03162277660168379,-0.5565142386577848,-1.3830685899464945
6628170,1679.5,1,195801.0,229304,0.4550000000000001,-0.8,9.99,-0.03,-0.01,0.0,32.05,4.709684,-68.1228598148446,-862.5024991024691,10.032304072345495,0.03162277660168379,-1.23335079821761,-1.5362575098731013
6668187,1679.5,1,196018.0,230435,0.4550000000000001,-0.8,9.97,-0.03,-0.01,0.0,32.05,4.749701,-36.038889624906766,-852.8354533726415,10.012388576159038,0.03162277660168379,-0.6495393568101907,-1.5189898052991877
6708190,1679.5,1,196382.0,231086,0.4550000000000001,-0.81,10.000000000000004,-0.03,-0.01,0.0,32.05,4.789704,-65.80733279715231,-768.2982296805958,10.043063526633697,0.03162277660168379,-1.1912166372078008,-1.3679856779773307
6748187,1679.5,1,196632.0,231476,0.4550000000000001,-0.8,9.96,-0.03,-0.01,-0.0,32.05,4.829701,-61.277996641496735,-659.8372668309415,10.002430954523007,0.03162277660168379,-1.1087992102497954,-1.1742479098284409
6786191,1679.5,1,196847.0,231898,0.48,-0.81,9.96,-0.03,-0.01,-0.0,32.05,4.867705,-52.61505972969113,-590.1178328707673,10.004404030225889,0.03162277660168379,-0.9511652997529922,-1.0497119737905916
6826188,1679.5,1,196752.0,231762,0.4550000000000001,-0.82,9.98,-0.03,-0.01,-0.0,32.05,4.907702,-95.62786539404102,-604.8829981565809,10.023962539834235,0.03162277660168379,-1.7338417554790588,-1.076086164961919
6866191,1679.5,1,196862.0,232187,0.4550000000000001,-0.8,9.95,-0.03,-0.01,-0.0,32.05,4.947705,-39.317551082959966,-715.2910791591368,9.992473417527814,0.03162277660168379,-0.7091990579126838,-1.2733019616600134
6906187,1809.0,1,197161.0,232566,0.48,-0.7949999999999999,9.99,-0.03,-0.01,-0.0,32.05,4.987701,4.187800791322975,-895.3865185839811,10.033071563584105,0.03162277660168379,0.0824399454992972,-1.5949963996517573
6946191,1747.0,1,197004.0,231734,0.47,-0.8,9.97,-0.03,-0.01,-0.0,32.05,5.027705,26.79024450944768,-1091.0404589653426,10.013081443791418,0.03162277660168379,0.4937221268593473,-1.9444821200723352
6986187,1897.0,1,196604.0,231932,0.4550000000000001,-0.82,9.97,-0.03,-0.01,0.0,32.05,5.067701,82.51262024069393,-1240.8132008498824,10.014006440980554,0.03162277660168379,1.5076664829262019,-2.2120128148023146
7026194,1741.0,1,197002.0,232795,0.4550000000000001,-0.81,9.99,-0.03,-0.01,-0.0,32.05,5.107708,-4.406267187091082,-1302.0735252424556,10.033106448154529,0.03162277660168379,-0.07394080115794742,-2.3214387152559723
7066187,1751.0,1,197379.0,233451,0.46,-0.7949999999999999,9.98,-0.03,-0.01,-0.0,32.05,5.147701,-52.19373356673621,-1260.7668546534676,10.022176659788032,0.03162277660168379,-0.9434986976136314,-2.2476549136068478
7106191,1870.0,1,197641.0,234260,0.4550000000000001,-0.84,9.94,-0.03,-0.01,0.0,32.05,5.187705,86.82404940438876,-1113.6155420400066,9.98580116966085,0.03162277660168379,1.5861187960184282,-1.984806731764413
7146874,1872.0,1,197894.0,235158,0.4550000000000001,-0.83,10.0,-0.03,-0.01,0.0,32.35,5.228388,81.79057549799711,-846.3334681264437,10.044696361762261,0.03162277660168379,1.4945278975360843,-1.5073756717248663
7187191,1757.0,1,198514.0,236298,0.4550000000000001,-0.81,9.97,-0.03,-0.01,0.0,32.35,5.268705,-51.308640149991895,-442.3477308977179,10.013192547834082,0.03162277660168379,-0.9273932200075035,-0.7857584830302641
7227204,1872.0,1,199091.0,237818,0.4550000000000001,-0.82,9.96,-0.03,-0.01,0.0,32.35,5.308718,73.25762092102595,79.08861745191993,10.004050429700962,0.03162277660168379,1.3392591922744173,0.14565418109111053
7267191,1895.0,1,200009.0,240101,0.4550000000000001,-0.8,9.98,-0.03,-0.01,-0.0,32.35,5.348705,91.50230107714683,636.6691729721153,10.022346282183628,0.03162277660168379,1.6712459431941267,1.1416292264117154
7307187,1679.5,1,200713.0,241146,0.46,-0.84,10.0,-0.03,-0.01,-0.0,32.35,5.388701,-152.59771410799243,1108.4946571553223,10.045755322523041,0.03162277660168379,-2.770485577847572,1.9844247710920129
7347191,1815.0,1,200894.0,241904,0.49,-0.85,9.93,-0.03,-0.01,-0.0,32.35,5.428705,32.766647588268256,1391.3709359620384,9.978351567268012,0.03162277660168379,0.6024709031243317,2.4897108895108944
7387188,1987.5,1,201156.0,242399,0.47,-0.83,9.97,-0.03,-0.01,-0.0,32.35,5.468702,129.1086305228307,1452.6889977887645,10.01552295189822,0.03162277660168379,2.355544216436274,2.599239923122672
7427213,1679.5,1,201240.0,242645,0.48,-0.82,9.95,-0.03,-0.01,-0.0,32.35,5.508727,-105.7824613256748,1338.4520841033086,9.995263878457635,0.03162277660168379,-1.9186184290846304,2.395184896169644
7467188,1899.0,1,201193.0,242378,0.46,-0.81,9.98,-0.03,-0.01,-0.0,32.35,5.548702,56.66447817233842,1137.751333945062,10.023377674217409,0.03162277660168379,1.0373244090090827,2.036684340948078
7507191,1858.0,1,200983.0,241921,0.48,-0.84,9.96,-0.03,-0.01,-0.0,32.35,5.588705,33.269997613623666,931.7251411536294,10.006877634906905,0.03162277660168379,0.6116300409148089,1.6686712445960359
7547188,1719.0,1,200915.0,242037,0.52,-0.82,9.97,-0.03,-0.01,-0.0,32.35,5.628702,-84.01417280234737,758.867173694429,10.017170259110106,0.03162277660168379,-1.5225148351546614,1.3599046990812165
7587190,1987.5,1,201071.0,242187,0.5,-0.84,9.96,-0.03,-0.01,-0.0,32.35,5.668704,131.66279884191977,614.609530858548,10.007856913445556,0.03162277660168379,2.4020207802510662,1.102225318157923
7627205,1855.0,1,200968.0,241369,0.49,-0.83,9.97,-0.03,-0.01,-0.0,32.35,5.708719,63.07531778259877,479.10719732248117,10.016481418142801,0.03162277660168379,1.1539783483856898,0.8601850578788969
7667191,1876.0,1,200814.0,240993,0.52,-0.84,9.97,-0.03,-0.01,-0.0,32.35,5.748705,32.89213924112293,345.9565554040886,10.018827276682636,0.03162277660168379,0.6047543942977733,0.6223454931626997
7707188,1987.5,1,200791.0,240934,0.51,-0.83,9.96,-0.03,-0.01,-0.0,32.35,5.788702,173.38701104812066,226.31692742605273,10.007527167087781,0.03162277660168379,3.1612495267398866,0.4086398990241166
7747191,1987.5,1,200774.0,240937,0.48,-0.83,9.94,-0.03,-0.01,-0.0,32.35,5.828705,174.27193147844727,129.95968214401495,9.986135388627574,0.03162277660168379,3.1773518566230465,0.2365223264390909
7787187,1987.5,1,200790.0,241062,0.52,-0.84,9.97,-0.03,-0.01,-0.0,32.35,5.868701,162.2213586251338,49.38221209669587,10.018827276682636,0.03162277660168379,2.958075306195243,0.0925912861837039
7827191,1857.0,1,200810.0,241292,0.5,-0.83,9.95,-0.03,-0.01,-0.0,32.35,5.908705,47.13568922786829,-31.89712167727393,9.997069570629185,0.03162277660168379,0.8639351440395355,-0.05259345409769581
7867187,1763.0,1,200758.0,241269,0.51,-0.84,9.96,-0.03,-0.01,-0.0,32.35,5.948701,-38.06956100494877,-114.17533451461327,10.008361504262323,0.03162277660168379,-0.6864901823591721,-0.1995624363340201
7907191,1757.0,1,200682.0,241260,0.48,-0.86,10.0,-0.03,-0.01,-0.0,32.35,5.988705,-74.49005000392066,-167.6810523356057,10.048382954485762,0.03162277660168379,-1.3492104770539115,-0.29513671560915933
7947187,1725.0,1,200752.0,241209,0.49,-0.83,9.99,-0.03,-0.01,-0.0,32.35,6.028701,-43.05337614955567,-149.79415830297788,10.036388792787973,0.03162277660168379,-0.7771774721819756,-0.2631863545027342
7987191,1891.0,1,200872.0,241440,0.5,-0.84,9.97,-0.03,-0.01,-0.0,32.35,6.068705,50.836145474401725,-43.87042578794659,10.017809141723554,0.03162277660168379,0.9312699745597093,-0.07398069937768775
8027187,1679.5,1,201114.0,241657,0.53,-0.86,9.95,-0.03,-0.01,-0.0,32.35,6.108701,-82.58826460830306,112.27165743139436,10.001149933882603,0.03162277660168379,-1.496568497679858,0.20492719450636304
8067190,1679.5,1,201169.0,241826,0.53,-0.81,9.94,-0.03,-0.01,-0.0,32.35,6.148704,-138.1898186059843,235.3549649466777,9.987021578028155,0.03162277660168379,-2.5083143381014117,0.42478404131906394
8107188,1712.0,1,201326.0,242039,0.52,-0.82,9.94,-0.03,-0.01,-0.0,32.35,6.188702,-67.79301222577101,242.37874062162177,9.98731195067021,0.03162277660168379,-1.227348773054209,0.4373302200315689
8147878,1687.0,1,201200.0,241415,0.51,-0.84,9.98,-0.03,-0.01,-0.0,32.63000000000001,6.229392,-100.90890484128897,103.31763024495295,10.028265054335172,0.03162277660168379,-1.8299374454318627,0.1889331151853977
8186188,1679.5,1,200805.0,240586,0.5,-0.82,9.97,-0.03,-0.01,-0.0,32.63000000000001,6.267702,-110.45620146653404,-136.73168649289252,10.016151955716326,0.03162277660168379,-2.0036634828060205,-0.2398535897134182
8226191,1685.0,1,200624.0,240414,0.51,-0.85,9.95,-0.03,-0.01,-0.0,32.63000000000001,6.307705,-92.7363286072624,-382.2828165600671,9.999254972246682,0.03162277660168379,-1.6812263138931782,-0.6784678768795386
8266187,1795.0,1,200569.0,240407,0.53,-0.81,9.96,-0.03,-0.01,-0.0,32.63000000000001,6.347701,12.349896219445547,-540.8216043859909,10.006927600417622,0.03162277660168379,0.23096036453059224,-0.9616568705177485
8306191,1781.0,1,200539.0,240286,0.5,-0.85,9.97,-0.03,-0.01,-0.0,32.63000000000001,6.387705,2.6771192801711226,-568.0347339669888,10.018652604018166,0.03162277660168379,0.05495104230832929,-1.0102661659808292
8346187,1679.5,1,200570.0,240549,0.53,-0.85,9.96,-0.03,-0.01,-0.0,32.63000000000001,6.427701,-102.79067342978473,-479.78699892127116,10.010244752252564,0.03162277660168379,-1.8641787823219416,-0.8526341591946531
8386191,1691.0,1,200783.0,240822,0.51,-0.82,9.99,-0.03,-0.01,-0.0,32.63000000000001,6.467705,-71.37139258125593,-331.78918460934335,10.036563156778321,0.03162277660168379,-1.292462266829204,-0.5882739185848388
8426188,1679.5,1,200933.0,240976,0.5,-0.83,9.95,-0.03,-0.01,-0.0,32.63000000000001,6.507702,-127.69054176025433,-185.17703992135628,9.997069570629185,0.03162277660168379,-2.317265726824385,-0.32638882233370153
8466191,1679.5,1,201084.0,241037,0.52,-0.84,9.96,-0.03,-0.01,-0.0,32.63000000000001,6.547705,-51.34458106674567,-78.50651144573106,10.008876060777254,0.03162277660168379,-0.9280472138334329,-0.13584920723940208
8506188,1917.0,1,201158.0,241055,0.5,-0.82,9.96,-0.03,-0.01,-0.0,32.63000000000001,6.587702,80.17236053735203,-19.83404971901705,10.006198079190717,0.03162277660168379,1.4650822770879786,-0.03104586151867975
8546191,1679.5,1,201223.0,241131,0.51,-0.83,9.96,-0.03,-0.01,-0.0,32.63000000000001,6.627705,-36.85946731475141,-0.6203115362357084,10.007527167087781,0.03162277660168379,-0.6644708830851159,0.0032745672837926577
8586187,1808.0,1,201134.0,241198,0.51,-0.84,9.96,-0.03,-0.01,-0.0,32.63000000000001,6.667701,-32.39669639758763,-18.894001632028253,10.008361504262323,0.03162277660168379,-0.5832647011071259,-0.029366706055360688
8626191,1679.5,1,201140.0,241314,0.5,-0.84,9.99,-0.03,-0.01,-0.0,32.63000000000001,6.707705,-55.83340711125973,-90.20608900108154,10.037713883150884,0.03162277660168379,-1.0097275042638485,-0.15674751004167772
8666187,1679.5,1,201154.0,241345,0.49,-0.83,9.96,-0.03,-0.01,0.0,32.63000000000001,6.747701,-142.0891324443676,-231.90731280430595,10.00652786934609,0.03162277660168379,-2.5792676527632112,-0.40986050224014736
8706191,1789.0,1,201012.0,240685,0.52,-0.83,9.95,-0.03,-0.01,-0.0,32.63000000000001,6.787705,21.99389807348557,-430.2640513517122,9.998089817560151,0.03162277660168379,0.40644608497016227,-0.7641740802667126
8746188,1951.0,1,200765.0,240271,0.51,-0.84,9.95,-0.03,-0.01,0.0,32.63000000000001,6.827702,143.21237380284163,-622.3375083338194,9.998409873574897,0.03162277660168379,2.6121809931443414,-1.1072641829051835
8786191,1930.0,1,200701.0,240164,0.51,-0.84,9.95,-0.03,-0.01,-0.0,32.63000000000001,6.867705,142.1146639548646,-719.1456783555223,9.998409873574897,0.03162277660168379,2.5922066706150315,-1.2801872172007687
8826188,1963.0,1,200812.0,240251,0.49,-0.82,9.96,-0.03,-0.01,-0.0,32.63000000000001,6.907702,152.42735784892108,-661.0004032442141,10.005703373576493,0.03162277660168379,2.7798601515103227,-1.176325555525469
8866203,1939.0,1,201174.0,240600,0.5,-0.82,9.95,-0.03,-0.01,0.0,32.63000000000001,6.947717,140.4022582931089,-462.62312856370124,9.996244294733897,0.03162277660168379,2.561047122350105,-0.8219752949498104
8906168,1987.5,1,201522.0,240912,0.54,-0.84,9.97,-0.03,-0.01,-0.0,32.63000000000001,6.987682,167.70430656033213,-209.56072563899846,10.019885228883613,0.03162277660168379,3.0578449954905493,-0.36994404004579484
8946191,1987.5,1,201735.0,241314,0.51,-0.84,9.95,-0.03,-0.01,-0.0,32.63000000000001,7.027705,175.62846094243523,-6.3257287420595,9.998409873574897,0.03162277660168379,3.2020357538151347,-0.0069167012313761655
8986188,1847.0,1,201881.0,241522,0.52,-0.81,9.97,-0.03,-0.01,-0.0,32.63000000000001,7.067702,22.505856803207386,85.91396195169943,10.01635662304413,0.03162277660168379,0.41576186983626784,0.1578459132636117
9026197,1772.0,1,202012.0,241654,0.53,-0.84,9.94,-0.03,-0.01,-0.0,32.63000000000001,7.107711,-59.62295434741238,79.60970065593513,9.989499486961297,0.03162277660168379,-1.0786834664194807,0.14658496295320514
9066205,1911.0,1,202013.0,241665,0.51,-0.83,9.98,-0.03,-0.01,-0.0,32.63000000000001,7.147719,82.288183465565,42.750452086437804,10.027432373244908,0.03162277660168379,1.5035825507813594,0.08074534318698309
9106191,1873.0,1,202117.0,241784,0.52,-0.83,9.96,-0.03,-0.01,-0.0,32.63000000000001,7.187705,28.285655294018742,48.56413026380288,10.008041766499579,0.03162277660168379,0.5209331584264578,0.09112999223698187
9146188,1763.0,1,202275.0,241931,0.52,-0.84,9.94,-0.03,-0.01,-0.0,32.63000000000001,7.227702,-86.72617894863427,126.95772398901272,9.9889739212794,0.03162277660168379,-1.57186347274522,0.23116009603152315
9186878,1798.0,1,202445.0,242160,0.51,-0.8,9.98,-0.03,-0.01,-0.0,32.35,7.268392,-37.855443390675006,248.10109888814713,10.024993765584096,0.03162277660168379,-0.6825940213703714,0.44755174941852205
9227187,1771.0,1,202734.0,242291,0.52,-0.85,9.93,-0.03,-0.01,-0.0,32.35,7.308701,-118.91175714281033,347.31842689951964,9.979869738628857,0.03162277660168379,-2.157523809880371,0.6247781282518436
9267191,1767.0,1,202834.0,242015,0.53,-0.85,9.95,-0.03,-0.01,-0.0,32.35,7.348705,-54.320362908085656,372.9233437247389,10.000294995648877,0.03162277660168379,-0.9821956086805137,0.6705147629729667
9307188,1855.0,1,202774.0,241791,0.52,-0.83,9.96,-0.03,-0.01,-0.0,32.35,7.388702,-58.62407402797232,322.39152775011365,10.008041766499579,0.03162277660168379,-1.0605074814764235,0.5802525986862191
9347191,1679.5,1,202792.0,241870,0.53,-0.84,9.94,-0.03,-0.01,-0.0,32.35,7.428705,-164.23004742183522,241.2227463240599,9.989499486961297,0.03162277660168379,-2.982151691445194,0.43526533189745814
9387188,1987.5,1,202826.0,241947,0.5,-0.83,9.99,-0.03,-0.01,-0.0,32.35,7.468702,99.06414572226892,188.1600171779602,10.036881985955599,0.03162277660168379,1.8088439834563705,0.3404823385830375
9427191,1918.0,1,202899.0,242250,0.52,-0.83,9.96,-0.03,-0.01,-0.0,32.35,7.508705,11.899720606533828,195.80031120585417,10.008041766499579,0.03162277660168379,0.22276880744134883,0.35412976964095005
9467188,1712.0,1,203101.0,242629,0.52,-0.82,9.96,-0.03,-0.01,-0.0,32.35,7.548702,-134.7636453252603,255.49081090651794,10.00721739546014,0.03162277660168379,-2.445970458909105,0.4607515798099111
9505191,1987.5,1,203223.0,242848,0.52,-0.8,9.96,-0.03,-0.01,-0.0,32.35,7.586705,39.167843326806576,332.3024774241891,10.005598432877466,0.03162277660168379,0.7189493591484278,0.5979559752711474
9545187,1679.5,1,203272.0,243010,0.52,-0.84,9.96,-0.03,-0.01,-0.0,32.35,7.626701,-172.51179287520506,392.2411844395504,10.008876060777254,0.03162277660168379,-3.132849305296535,0.7050211443217219
9585191,1760.0,1,203381.0,243104,0.51,-0.85,9.96,-0.03,-0.01,-0.0,32.35,7.666705,-169.1708959161501,419.3571249751986,10.00920576269666,0.03162277660168379,-3.0720571446719984,0.7534568364141533
9625188,1904.0,1,203466.0,243248,0.52,-0.84,9.97,-0.03,-0.01,-0.0,32.35,7.706702,-1.0032988562069065,414.6519421653861,10.018827276682636,0.03162277660168379,-0.012019167564722221,0.7450522308090086
9665191,1773.0,1,203439.0,243278,0.51,-0.85,9.96,-0.03,-0.01,-0.0,32.35,7.746705,-113.23835150015269,384.8961088316045,10.00920576269666,0.03162277660168379,-2.0542884837558097,0.691901045460523
9705188,1974.0,1,203456.0,243238,0.51,-0.84,9.96,-0.03,-0.01,-0.0,32.35,7.786702,27.710723168994,333.8810922097829,10.008361504262323,0.03162277660168379,0.5104714870486621,0.6007757668098942
9745191,1987.5,1,203394.0,243149,0.51,-0.82,9.95,-0.03,-0.01,-0.0,32.35,7.826705,112.45279345809962,262.1271746493857,9.99674947170329,0.03162277660168379,2.0524686248856567,0.47260574619740336
9785188,1987.5,1,203408.0,242719,0.52,-0.85,9.95,-0.03,-0.01,-0.0,32.35,7.866702,44.14169721911616,172.37965684991093,9.999769997354939,0.03162277660168379,0.8094553904478163,0.312294761133818
9825191,1987.5,1,203203.0,242143,0.52,-0.83,9.99,-0.03,-0.01,-0.0,32.35,7.906705,90.26254150702604,73.92630803816397,10.03789818637348,0.03162277660168379,1.6486868329173738,0.13643303573117632
9865188,1987.5,1,203213.0,241942,0.53,-0.82,9.98,-0.03,-0.01,-0.0,32.35,7.946702,68.64311089046565,-18.991976660799676,10.027646782770123,0.03162277660168379,1.2552919109067486,-0.02954171338435527
9905190,1987.5,1,203136.0,241941,0.54,-0.84,9.95,-0.03,-0.01,0.0,32.35,7.986704,68.48275585674808,-93.25976485097087,9.99998499998875,0.03162277660168379,1.25237403313734,-0.16220212088288702
9945188,1987.5,1,203113.0,241965,0.51,-0.84,9.96,-0.03,-0.01,-0.0,32.35,8.026702,83.83816823944541,-142.2227108504275,10.008361504262323,0.03162277660168379,1.5317866302528729,-0.24966190024219945
9985191,1987.5,1,203027.0,242233,0.51,-0.82,9.94,-0.03,-0.01,0.0,32.35,8.066705,66.44283691466117,-166.6762501747619,9.98679628309299,0.03162277660168379,1.2152549356290288,-0.2933418935555979
10025197,1987.5,1,203059.0,242367,0.52,-0.85,9.96,-0.03,-0.01,-0.0,32.35,8.106711,84.00473311888689,-171.6177921685177,10.009720275811908,0.03162277660168379,1.5348175046047348,-0.30216869438726063
10065191,1987.5,1,203109.0,242391,0.52,-0.84,9.95,-0.03,-0.01,-0.0,32.35,8.146705,78.9438232430456,-161.22887833748445,9.998924942212536,0.03162277660168379,1.4427273713713304,-0.28361155708888075
10105191,1987.5,1,203048.0,242479,0.52,-0.85,9.99,-0.03,-0.01,-0.0,32.35,8.186705,79.67517823678288,-135.90382555054452,10.03957170401208,0.03162277660168379,1.4560353694322494,-0.2383748278889407
10145191,1987.5,1,203105.0,242640,0.55,-0.84,9.98,-0.03,-0.01,-0.0,32.35,8.226705,94.27962624728107,-94.92238982210583,10.030378856254634,0.03162277660168379,1.7217831491955737,-0.16517197513010412
10185191,1982.0,1,203165.0,242618,0.54,-0.85,9.96,-0.03,-0.01,-0.0,32.35,8.266705,74.44970100160121,-44.344595932707996,10.01077919045266,0.03162277660168379,1.3609507094399576,-0.07482768305877725
10225877,1920.0,1,203136.0,242631,0.5,-0.85,9.94,-0.03,-0.01,-0.0,32.09,8.307391,38.54564243448064,-3.777173194298399,9.98879872657368,0.03162277660168379,0.7076275683088481,-0.0023643586110074664
10266187,1915.0,1,203100.0,242719,0.54,-0.83,9.96,-0.03,-0.01,-0.0,32.09,8.347701,15.228370316951095,-3.552802362842286,10.009100858718531,0.03162277660168379,0.28333811273226794,-0.0019635775098450704
10306191,1872.0,1,203085.0,242853,0.52,-0.84,9.98,-0.03,-0.01,-0.0,32.09,8.387705,-2.7103395269537236,-69.00539103092169,10.02877858963892,0.03162277660168379,-0.04308109252693707,-0.11887788580064083
10346188,1841.0,1,202976.0,242225,0.51,-0.86,9.94,-0.03,-0.01,-0.0,32.09,8.427702,-44.06994755349297,-199.2678599117692,9.990160158876332,0.03162277660168379,-0.7956753704505737,-0.35155846811782115
10386191,1791.0,1,202652.0,241748,0.51,-0.84,9.97,-0.03,-0.01,-0.0,32.09,8.467705,-81.20681536017027,-356.8365943906716,10.018313231278007,0.03162277660168379,-1.4714311511479583,-0.6330147095703642
10426188,1776.0,1,202560.0,241508,0.55,-0.84,9.97,-0.03,-0.01,-0.0,32.09,8.507702,-89.96478924939122,-480.5426530417229,10.020429132527209,0.03162277660168379,-1.6307943886090803,-0.8539839420007652
10466191,1789.0,1,202552.0,241402,0.52,-0.85,9.97,-0.03,-0.01,-0.0,32.09,8.547705,-81.90792194519008,-517.4518890907483,10.019670653269998,0.03162277660168379,-1.484188738303086,-0.9199128516134417
10506191,1789.0,1,202529.0,241446,0.51,-0.83,9.96,-0.03,-0.01,-0.0,32.09,8.587705,-58.86385065625932,-453.1171841218961,10.007527167087781,0.03162277660168379,-1.0648705430971435,-0.8049953566207035
10546191,1794.0,1,202629.0,241802,0.55,-0.85,9.95,-0.03,-0.01,-0.0,32.09,8.627705,-70.79467534251116,-319.4152506786268,10.001374905481745,0.03162277660168379,-1.281968112881209,-0.5661710506038315
10586190,1751.0,1,202871.0,242012,0.52,-0.85,9.95,-0.03,-0.01,-0.0,32.09,8.667704,-86.87916044393494,-174.34360422741472,9.999769997354939,0.03162277660168379,-1.574647178962107,-0.3070376604263697
10626190,1782.0,1,202879.0,242159,0.52,-0.84,10.0,-0.03,-0.01,0.0,32.09,8.707704,-67.03907283712053,-66.99959433886575,10.048681505550865,0.03162277660168379,-1.2136298212344647,-0.11529504304994528
10666188,1769.0,1,202898.0,242109,0.54,-0.86,9.96,-0.03,-0.01,0.0,32.09,8.747702,-68.73551516028911,-11.28368132699299,10.01163323339404,0.03162277660168379,-1.2444988948587823,-0.015772815386701458
10706191,1766.0,1,202985.0,242148,0.54,-0.84,9.96,-0.03,-0.01,-0.0,32.09,8.787705,-61.94128280589876,13.983097358593328,10.009935064724447,0.03162277660168379,-1.1208686034518434,0.02935982203643238
10746188,1776.0,1,202941.0,242181,0.51,-0.85,9.95,-0.03,-0.01,0.0,32.09,8.827702,-62.31208911904525,39.9680366242348,9.999254972246682,0.03162277660168379,-1.1276159282648093,0.07577526964580125
10786191,1765.0,1,202923.0,242313,0.52,-0.83,9.97,-0.03,-0.01,-0.0,32.09,8.867705,-49.46047501073185,77.84064945508456,10.017993811138037,0.03162277660168379,-0.8937633435451215,0.14342500546814216
10826188,1835.0,1,203025.0,242397,0.54,-0.83,9.96,-0.03,-0.01,-0.0,32.09,8.907702,7.459460893741773,108.2989843944964,10.009100858718531,0.03162277660168379,0.1419722474208121,0.19783103025028168
10866191,1818.0,1,203056.0,242489,0.54,-0.85,9.96,-0.03,-0.01,-0.0,32.09,8.947705,1.5503159226864875,100.5580641401796,10.01077919045266,0.03162277660168379,0.034447323833920025,0.18400385617688966
10906197,1840.0,1,203013.0,242018,0.52,-0.83,9.95,-0.03,-0.01,-0.0,32.09,8.987711,34.67704198360273,45.71906062012288,9.998089817560151,0.03162277660168379,0.6372331254738168,0.08604800302618373
10946191,1926.0,1,202860.0,241705,0.54,-0.84,9.97,-0.03,-0.01,-0.0,32.09,9.027705,99.33827659812215,-26.00342643875176,10.019885228883613,0.03162277660168379,1.813832167300786,-0.04206587503458348
10986191,1825.0,1,202789.0,241553,0.54,-0.85,9.95,-0.03,-0.01,0.0,32.09,9.067705,41.02973211533504,-62.93109958647319,10.000829965557857,0.03162277660168379,0.752828956060409,-0.10802771780826716
11026193,1849.0,1,202886.0,241664,0.53,-0.84,9.97,-0.03,-0.01,-0.0,32.09,9.107707,16.61407713695424,-31.261798394345497,10.019351276405075,0.03162277660168379,0.3085529315706124,-0.05145861155477833
11066191,1821.0,1,203044.0,241782,0.54,-0.84,9.95,-0.03,-0.01,-0.0,32.09,9.147705,48.142002984654255,58.45869530286129,9.99998499998875,0.03162277660168379,0.8822463904775334,0.10880410186228952
11106191,1838.0,1,203172.0,242015,0.56,-0.81,9.95,-0.03,-0.01,-0.0,32.09,9.187705,8.501441618149801,160.76217325926717,9.998609903381569,0.03162277660168379,0.16093250280797672,0.29154309820162
11146188,1759.0,1,203201.0,242158,0.52,-0.84,9.95,-0.03,-0.01,-0.0,32.09,9.227702,-12.390264239126717,230.8540908695829,9.998924942212536,0.03162277660168379,-0.21922047819128845,0.4167443810071389
11186191,1841.0,1,203259.0,242157,0.54,-0.85,9.96,-0.03,-0.01,-0.0,32.09,9.267705,19.71275028052002,255.18413326871024,10.01077919045266,0.03162277660168379,0.36493750067742914,0.4602037786515128
11226877,1807.0,1,203252.0,242306,0.54,-0.84,9.94,-0.03,-0.01,0.0,31.91,9.308391,31.705921613057633,253.61668526617856,9.990035034973602,0.03162277660168379,0.5831695524230329,0.4574039337144836
11265191,1840.0,1,203373.0,242295,0.52,-0.87,9.94,-0.03,-0.01,-0.0,31.91,9.346705,28.33765782662549,255.32315717181987,9.991541422623438,0.03162277660168379,0.5218794151814121,0.4604521092950933
11305191,1808.0,1,203290.0,242385,0.53,-0.83,9.94,-0.03,-0.01,-0.0,31.91,9.386705,26.933040460932226,270.0514539265246,9.988663574272586,0.03162277660168379,0.4963204932638106,0.4867604442657718
11345190,1822.0,1,203393.0,242394,0.56,-0.85,9.94,-0.03,-0.01,0.0,31.91,9.426704,18.738025144408866,277.5127914467748,9.99198178541174,0.03162277660168379,0.34720105212320496,0.5000882152960053
11385191,1793.0,1,203430.0,242453,0.53,-0.86,9.94,-0.03,-0.01,-0.0,31.91,9.466705,6.312663160458525,243.08646698539758,9.991201128993449,0.03162277660168379,0.12110470410533968,0.43859439215926904
11425191,1797.0,1,203391.0,242340,0.53,-0.85,9.97,-0.03,-0.01,-0.0,31.91,9.506705,0.12303567354655583,148.00096874786692,10.020194608888593,0.03162277660168379,0.008476019951956827,0.2687484703837082
11465191,1802.0,1,203176.0,241859,0.55,-0.85,9.96,-0.03,-0.01,-0.0,31.91,9.546705,9.822802510602765,9.851656839421192,10.011323588816817,0.03162277660168379,0.18497646004504875,0.021980060282576142
11505190,1798.0,1,203104.0,241458,0.53,-0.84,9.96,-0.03,-0.01,-0.0,31.91,9.586704,6.4851438826086865,-124.00933148078279,10.009400581453418,0.03162277660168379,0.12424322525522712,-0.21712835658912236
11545187,1791.0,1,203096.0,241446,0.52,-0.86,9.96,-0.03,-0.01,-0.0,31.91,9.626701,-7.374904136234127,-205.48016964224055,10.010574409093618,0.03162277660168379,-0.12795918498122083,-0.362655170476065
11585190,1795.0,1,203135.0,241525,0.53,-0.83,9.96,-0.03,-0.01,-0.0,31.91,9.666704,8.130423268209569,-214.56239682007924,10.008566330898748,0.03162277660168379,0.1541813196973796,-0.3788782462908605
11625191,1823.0,1,203189.0,241826,0.55,-0.84,9.94,-0.03,-0.01,-0.0,31.91,9.706705,19.111264895827368,-167.80570336665903,9.990580563711,0.03162277660168379,0.3539926566527005,-0.2953593727930828
11665191,1793.0,1,203310.0,242010,0.52,-0.85,9.96,-0.03,-0.01,-0.0,31.91,9.746705,7.291580536038997,-103.28691995393565,10.009720275811908,0.03162277660168379,0.13891743615418187,-0.18011306874367622
11705191,1791.0,1,203372.0,242284,0.54,-0.83,9.96,-0.03,-0.01,-0.0,31.91,9.786705,-13.781916768044,-54.62812125470876,10.009100858718531,0.03162277660168379,-0.24454348728385655,-0.093196570741885
11745191,1773.0,1,203456.0,242441,0.55,-0.83,9.96,-0.03,-0.01,-0.0,31.91,9.826705,-18.298337198021418,-31.15291616540664,10.00964534836275,0.03162277660168379,-0.32672589505999783,-0.051264121302511886
11785191,1806.0,1,203563.0,242497,0.54,-0.84,9.99,-0.03,-0.01,-0.0,31.91,9.866705,6.321483552282177,-16.157628296240993,10.03978585428992,0.03162277660168379,0.12126520312194702,-0.024478874996434714
11825191,1803.0,1,203521.0,242669,0.55,-0.82,9.97,-0.03,-0.01,-0.0,31.91,9.906705,1.5778571562330528,15.497732774302493,10.018772379887668,0.03162277660168379,0.034948474008283464,0.032065330795427276
11865191,1791.0,1,203618.0,242867,0.55,-0.84,9.96,-0.03,-0.01,-0.0,31.91,9.946705,-3.1786724508861006,72.13507072589749,10.010479508994562,0.03162277660168379,-0.05160304656694119,0.13323344843279905
11905191,1808.0,1,203774.0,242993,0.53,-0.84,9.96,-0.03,-0.01,-0.0,31.91,9.986705,0.12471479113200644,132.04538988347755,10.009400581453418,0.03162277660168379,0.008506573778433137,0.2402479098364509
11945191,1776.0,1,203856.0,243140,0.52,-0.85,9.97,-0.03,-0.01,-0.0,31.91,10.026705,-20.252309534091882,155.67327406938065,10.019670653269998,0.03162277660168379,-0.3622810772658859,0.28245308142987186
11985191,1791.0,1,203865.0,242759,0.54,-0.83,9.99,-0.03,-0.01,-0.0,31.91,10.066705,-14.387780910980245,115.8832404284243,10.0389541287925,0.03162277660168379,-0.25556800876578994,0.2113783637652877
12025196,1776.0,1,203713.0,242277,0.53,-0.84,9.95,-0.03,-0.01,-0.0,31.91,10.10671,-29.93800245567159,21.449134865780508,9.999449984874168,0.03162277660168379,-0.5385254233396921,0.04269598839117313
12065190,1753.0,1,203639.0,242169,0.55,-0.84,9.96,-0.03,-0.01,-0.0,31.91,10.146704,-46.14120336596924,-86.50891886896326,10.010479508994562,0.03162277660168379,-0.833364684904073,-0.1501434612572665
12105191,1806.0,1,203631.0,242173,0.54,-0.85,9.97,-0.03,-0.01,-0.0,31.91,10.186705,-8.183635608950484,-161.7408619766393,10.02072851643033,0.03162277660168379,-0.14267515323586522,-0.28452608490582537
12145191,1802.0,1,203700.0,242352,0.56,-0.83,9.97,-0.03,-0.01,-0.0,31.91,10.226705,3.5545848997416893,-181.08313413428525,10.020149699480543,0.03162277660168379,0.07091772177830355,-0.31907610677816656
12185188,1796.0,1,203666.0,242704,0.53,-0.87,9.95,-0.03,-0.01,-0.0,31.91,10.266702,-18.55878134486966,-153.43559564774887,10.002014797029647,0.03162277660168379,-0.33146503026918356,-0.2696908509177981
12225191,1769.0,1,203773.0,242932,0.55,-0.85,9.96,-0.03,-0.01,-0.0,31.91,10.306705,-35.12705304669991,-106.90297393745733,10.011323588816817,0.03162277660168379,-0.6329472510358902,-0.18657222427638617
12265875,1791.0,1,203835.0,243083,0.54,-0.86,9.97,-0.03,-0.01,-0.0,31.97,10.347389,-20.923086838709764,-66.45852159395743,10.021581711486466,0.03162277660168379,-0.37448678194501456,-0.11432855498593981
12306190,1776.0,1,203931.0,243147,0.54,-0.83,9.95,-0.03,-0.01,0.0,31.97,10.387704,-31.04666944167245,-38.076986486418264,9.999149963871929,0.03162277660168379,-0.5586991258866723,-0.06363220190270209
12346231,1770.0,1,203955.0,243332,0.55,-0.85,10.0,-0.03,-0.01,-0.0,31.97,10.427745,-46.13118160471777,-9.869430504803237,10.051119340650573,0.03162277660168379,-0.8331823253380023,-0.01324661802780858
12386191,1831.0,1,203954.0,243375,0.53,-0.83,9.99,-0.03,-0.01,0.0,31.97,10.467705,30.773371008810134,30.40845319510279,10.038421190605623,0.03162277660168379,0.566200526793473,0.058699518985534556
12424191,1887.0,1,204030.0,243500,0.56,-0.84,9.98,-0.03,-0.01,-0.0,31.97,10.505705,58.959156231059296,75.32514540749675,10.03093216007366,0.03162277660168379,1.0790791948755762,0.13893170089897003
12464191,1807.0,1,204125.0,243581,0.54,-0.84,9.98,-0.03,-0.01,-0.0,31.97,10.545705,17.29990147932455,94.54070503356908,10.02983549217035,0.03162277660168379,0.32103243755136157,0.17325538324399578
12504191,1847.0,1,204126.0,243517,0.56,-0.84,9.95,-0.03,-0.01,-0.0,31.97,10.585705,10.620295080332008,55.94275366881481,10.001084941145134,0.03162277660168379,0.1994879211855828,0.10431001565683418
12544191,1803.0,1,204016.0,242945,0.54,-0.84,9.95,-0.03,-0.01,-0.0,31.97,10.625705,15.055522546803212,-44.07014464322383,9.99998499998875,0.03162277660168379,0.28019291264522445,-0.074337446028852
12584191,1877.0,1,203862.0,242541,0.53,-0.83,9.95,-0.03,-0.01,-0.0,31.97,10.665705,44.9794275897131,-168.448012819911,9.998614904075463,0.03162277660168379,0.824699033060424,-0.29650669434237115
12624190,1842.0,1,203724.0,242413,0.54,-0.87,9.97,-0.03,-0.01,-0.0,31.97,10.705704,44.54239437125498,-259.29726484697005,10.022444811521789,0.03162277660168379,0.8167466196994686,-0.4587856458036114
12664191,1834.0,1,203837.0,242387,0.55,-0.85,9.98,-0.03,-0.01,-0.0,31.97,10.745705,14.027167052818795,-275.43654942558743,10.031221261641077,0.03162277660168379,0.2614805868430216,-0.48761434962136563
12704191,1823.0,1,203839.0,242493,0.54,-0.84,9.97,-0.03,-0.01,-0.0,31.97,10.785705,15.179893753504443,-217.85468828167723,10.019885228883613,0.03162277660168379,0.28245601577815893,-0.3847590828896449
12744188,1835.0,1,203968.0,242857,0.52,-0.86,10.0,-0.03,-0.01,-0.0,31.97,10.825702,22.495371722716456,-124.14116816872323,10.05037312740179,0.03162277660168379,0.41557107954696,-0.21736384911113812
12784191,1831.0,1,204049.0,243009,0.53,-0.86,9.96,-0.03,-0.01,-0.0,31.97,10.865705,21.63075470554399,-38.59760704268161,10.01109884078666,0.03162277660168379,0.399838197859545,-0.06456215736292338
12824191,1795.0,1,204109.0,243113,0.53,-0.84,9.96,-0.03,-0.01,-0.0,31.97,10.905705,-18.94531579985761,17.677787189583473,10.009400581453418,0.03162277660168379,-0.33849854999832596,0.0359594403972859
12864191,1783.0,1,204125.0,243201,0.56,-0.86,9.94,-0.03,-0.01,0.0,31.97,10.945705,-21.466066394612035,54.927616544833796,9.992837434883047,0.03162277660168379,-0.3843670329024064,0.1024967328350895
12904191,1842.0,1,204160.0,243326,0.53,-0.85,9.96,-0.03,-0.01,-0.0,31.97,10.985705,24.87273954528977,97.31726340518148,10.010244752252564,0.03162277660168379,0.458830518046483,0.1782149945909553
12944191,1825.0,1,204203.0,243361,0.53,-0.85,9.96,-0.03,-0.01,-0.0,31.97,11.025705,22.64586832962982,155.77728941971847,10.010244752252564,0.03162277660168379,0.418309569842546,0.2826388782483605
12984191,1839.0,1,204295.0,243576,0.56,-0.84,9.94,-0.03,-0.01,-0.0,31.97,11.065705,24.005100589355646,213.95236676079733,9.99113607153861,0.03162277660168379,0.44304264807632604,0.38655377398437596
13024217,1808.0,1,204314.0,243713,0.55,-0.85,9.97,-0.03,-0.01,-0.0,31.97,11.105731,2.1671682264020844,239.10068549919663,10.021272374304573,0.03162277660168379,0.04567178983472165,0.43147481301136736
13064191,1792.0,1,204314.0,243297,0.53,-0.86,9.96,-0.03,-0.01,-0.0,31.97,11.145705,-17.98002075965695,208.95651058574833,10.01109884078666,0.03162277660168379,-0.3209336948551891,0.3776299547602326
13104191,1828.0,1,204151.0,242707,0.55,-0.85,9.96,-0.03,-0.01,-0.0,31.97,11.185705,18.174275069300062,131.9382023634799,10.011323588816817,0.03162277660168379,0.3369428533406231,0.24005644674823778
13144191,1793.0,1,204063.0,242500,0.54,-0.86,9.95,-0.03,-0.01,-0.0,31.97,11.225705,-14.144779188528835,43.695774958816216,10.001684858062665,0.03162277660168379,-0.25114626217367597,0.08243392070522403
13184191,1785.0,1,204009.0,242463,0.53,-0.83,9.98,-0.03,-0.01,-0.0,31.97,11.265705,-27.61986218817833,-16.792393401176092,10.028469474451224,0.03162277660168379,-0.49634371069821054,-0.025612720497137035
13224188,1824.0,1,204002.0,242537,0.57,-0.84,9.95,-0.03,-0.01,-0.0,31.97,11.305702,19.293753945200173,-31.703476315349164,10.001649863897455,0.03162277660168379,0.3573132929182466,-0.05224755618893676
13264191,1799.0,1,204028.0,242776,0.55,-0.85,9.96,-0.03,-0.01,0.0,31.97,11.345705,-19.39979129463015,-10.76929795439727,10.011323588816817,0.03162277660168379,-0.3467683492817924,-0.014854001059764924
13304877,1756.0,1,203993.0,242975,0.54,-0.86,9.96,-0.03,-0.01,-0.0,31.85,11.386391,-43.43534839934639,23.029001826301503,10.01163323339404,0.03162277660168379,-0.7841279763872779,0.0455180166201479
13345191,1805.0,1,204086.0,243030,0.53,-0.83,9.95,-0.03,-0.01,-0.0,31.85,11.426705,-22.584402646584373,55.18284452769864,9.998614904075463,0.03162277660168379,-0.4047166808847781,0.10295263234464781
13385188,1760.0,1,204104.0,243082,0.55,-0.85,9.94,-0.03,-0.01,-0.0,31.85,11.466702,-34.468018841038116,91.09124316947255,9.991426324604511,0.03162277660168379,-0.6209552280017562,0.167093801921957
13425191,1827.0,1,204124.0,243194,0.57,-0.85,9.95,-0.03,-0.01,-0.0,31.85,11.506705,-8.305993589311372,147.57823252278732,10.002494688826381,0.03162277660168379,-0.1449016229794568,0.2679933602444396
13465191,1815.0,1,204176.0,243301,0.56,-0.85,9.96,-0.03,-0.01,-0.0,31.85,11.546705,20.66507864348523,230.05864121261425,10.011877945720274,0.03162277660168379,0.38226640950587126,0.41532351365388176
13505191,1849.0,1,204257.0,243444,0.56,-0.85,9.94,-0.03,-0.01,0.0,31.85,11.586705,9.928237054350701,314.33206164316107,9.99198178541174,0.03162277660168379,0.18689498485962797,0.5658564239242726
13545191,1814.0,1,204324.0,243547,0.53,-0.82,9.96,-0.03,-0.01,-0.0,31.85,11.626705,14.696279725839961,352.335950397828,10.007742003069424,0.03162277660168379,0.2736560012879262,0.6337406506069545
13585191,1846.0,1,204354.0,243430,0.53,-0.85,9.95,-0.03,-0.01,-0.0,31.85,11.666705,6.154309097625533,303.473381391213,10.000294995648877,0.03162277660168379,0.11822323672060049,0.5464601690710773
13625188,1785.0,1,204140.0,242738,0.55,-0.85,9.96,-0.03,-0.01,-0.0,31.85,11.706702,-23.0974153378679,169.08155654806924,10.011323588816817,0.03162277660168379,-0.41405164401388816,0.3064035485277147
13665191,1817.0,1,203916.0,242243,0.55,-0.83,9.98,-0.03,-0.01,-0.0,31.85,11.746705,-21.31801339067302,0.12981169514578564,10.029546350658139,0.03162277660168379,-0.3816730072839235,0.004614470571263309
13705188,1831.0,1,203788.0,242064,0.53,-0.85,9.96,-0.03,-0.01,-0.0,31.85,11.786702,10.985598608309795,-131.6514292827242,10.010244752252564,0.03162277660168379,0.20613511534382986,-0.23077900962800402
13745191,1858.0,1,203807.0,242019,0.56,-0.84,9.98,-0.03,-0.01,0.0,31.85,11.826705,22.662350849286454,-178.01135002503764,10.03093216007366,0.03162277660168379,0.41860949168830885,-0.31358915016331707
13785191,1838.0,1,203859.0,242117,0.55,-0.85,9.95,-0.03,-0.01,-0.0,31.85,11.866705,5.312106217068912,-140.30474788929862,10.001374905481745,0.03162277660168379,0.10289821071090034,-0.24623594998582546
13825190,1831.0,1,203916.0,242319,0.55,-0.85,9.96,-0.03,-0.01,0.0,31.85,11.906704,-3.42907732461937,-60.978789924033016,10.011323588816817,0.03162277660168379,-0.0561595035579002,-0.10454041595514815
13865190,1809.0,1,203988.0,242434,0.53,-0.84,9.93,-0.03,-0.01,-0.0,31.85,11.946704,-31.86157258883752,8.408417788520564,9.97954908800994,0.03162277660168379,-0.5735273961455408,0.019402082867656843
13905190,1808.0,1,203987.0,242503,0.54,-0.83,9.96,-0.03,-0.01,-0.0,31.85,11.986704,-32.53208074047491,37.70563851218576,10.009100858718531,0.03162277660168379,-0.5857282032203964,0.07173407409141346
13945191,1856.0,1,204022.0,242495,0.54,-0.85,9.95,-0.03,-0.01,-0.0,31.85,12.026705,15.23076850861697,28.823618629502946,10.000829965557857,0.03162277660168379,0.28338175108889707,0.05586861740069298
13985197,1840.0,1,204078.0,242363,0.53,-0.84,9.94,-0.03,-0.01,-0.0,31.85,12.066711,-13.151853212981289,3.643869437982501,9.989499486961297,0.03162277660168379,-0.23307862461000936,0.010891435908434673
14025196,1802.0,1,203936.0,242337,0.57,-0.85,9.97,-0.03,-0.01,-0.0,31.85,12.10671,-35.14330260381699,-20.968881308839823,10.022389934541561,0.03162277660168379,-0.6332429338116375,-0.033072947888380194
14065190,1859.0,1,203870.0,242140,0.54,-0.85,9.96,-0.03,-0.01,-0.0,31.85,12.146704,-3.905962529185789,-53.98844892881212,10.01077919045266,0.03162277660168379,-0.06483707796703951,-0.0920539597460965
14105188,1815.0,1,203879.0,241985,0.52,-0.84,9.96,-0.03,-0.01,-0.0,31.85,12.186702,-25.022386337725397,-129.197668433248,10.008876060777254,0.03162277660168379,-0.4490791074930413,-0.2263959934896759
14145191,1797.0,1,203845.0,241169,0.56,-0.85,9.94,-0.03,-0.01,-0.0,31.85,12.226705,-64.80152763631538,-276.85685528635383,9.99198178541174,0.03162277660168379,-1.1729146453643042,-0.49015136275792703
14185207,1761.0,1,203558.0,240087,0.56,-0.85,9.98,-0.03,-0.01,-0.0,31.85,12.266721,-89.86359273022374,-486.80155301537417,10.031774518997125,0.03162277660168379,-1.6289529804114409,-0.8651638659116676
14225191,1817.0,1,203248.0,239446,0.54,-0.85,9.97,-0.03,-0.01,-0.0,31.85,12.306705,-37.90375733959476,-696.6773837388118,10.02072851643033,0.03162277660168379,-0.6834731593321618,-1.2400533557746338
14265191,1854.0,1,203156.0,239286,0.57,-0.85,9.94,-0.03,-0.01,-0.0,31.85,12.346705,-4.708210674211198,-822.6888275401442,9.992547222805603,0.03162277660168379,-0.07943507326316405,-1.4651405691080641
14305877,1754.0,1,203173.0,239465,0.55,-0.85,9.98,-0.03,-0.01,-0.0,31.91,12.387391,-100.0424022286435,-812.6379546818367,10.031221261641077,0.03162277660168379,-1.8141702527721928,-1.4471872555438472
14344191,1783.0,1,203328.0,239804,0.55,-0.83,9.97,-0.03,-0.01,-0.0,31.91,12.425705,-71.61067817168662,-679.1209861985614,10.019595800230666,0.03162277660168379,-1.2968163933487822,-1.2086933421179449
14384190,1922.0,1,203487.0,240151,0.54,-0.83,9.95,-0.03,-0.01,-0.0,31.91,12.465704,60.819987546426574,-486.5583175229799,9.999149963871929,0.03162277660168379,1.1129395496262282,-0.8647293879189138
14424188,1897.0,1,203676.0,240419,0.53,-0.86,9.98,-0.03,-0.01,-0.0,31.91,12.505702,53.478206948312945,-303.590318111541,10.03099695942532,0.03162277660168379,0.9793458737779073,-0.5379038562501937
14464191,1904.0,1,203784.0,240709,0.56,-0.85,9.95,-0.03,-0.01,-0.0,31.91,12.545705,37.93023579441845,-158.97091280650685,10.001929813790936,0.03162277660168379,0.6964294081229532,-0.27957827920681816
14504191,1946.0,1,203827.0,240983,0.56,-0.82,9.98,-0.03,-0.01,-0.0,31.91,12.585705,108.76065855163979,-34.51253189777536,10.029277142446508,0.03162277660168379,1.9852852124572604,-0.05726521549092743
14544191,1949.0,1,203915.0,241149,0.54,-0.82,9.95,-0.03,-0.01,-0.0,31.91,12.625705,90.4744119776808,101.79461918738745,9.998324859695247,0.03162277660168379,1.6525421040740405,0.18621264548453556
14584188,1883.0,1,204032.0,241204,0.55,-0.87,9.95,-0.03,-0.01,-0.0,31.91,12.665702,40.91692454573346,251.9943865292626,10.003094521196926,0.03162277660168379,0.7507762690200932,0.4545061119701152
14624190,1951.0,1,204104.0,241470,0.55,-0.85,9.96,-0.03,-0.01,-0.0,31.91,12.705704,113.06152955585914,372.5137577878844,10.011323588816817,0.03162277660168379,2.0635454054887368,0.6697831424600513
14664191,1987.5,1,204149.0,241391,0.53,-0.82,9.96,-0.03,-0.01,-0.0,31.91,12.745705,134.63321418256976,402.81483389064175,10.007742003069424,0.03162277660168379,2.456071524324736,0.7239082645539364
14704191,1901.0,1,203990.0,240452,0.56,-0.84,9.98,-0.03,-0.01,-0.0,31.91,12.785705,85.71258542567479,316.95752834310025,10.03093216007366,0.03162277660168379,1.565894198387773,0.5705461486457886
14744188,1915.0,1,203640.0,239517,0.55,-0.85,9.95,-0.03,-0.01,-0.0,31.91,12.825702,58.359402670523906,155.4092362269487,10.001374905481745,0.03162277660168379,1.068165863745029,0.2819814453595696
14784191,1825.0,1,203408.0,238993,0.54,-0.85,9.96,-0.03,-0.01,-0.0,31.91,12.865705,22.695897051822016,8.98682120222609,10.01077919045266,0.03162277660168379,0.4192199104344955,0.020435252623086177
14824191,1920.0,1,203329.0,238974,0.55,-0.85,9.94,-0.03,-0.01,0.0,31.91,12.905705,71.30315125535007,-34.41869303626684,9.991426324604511,0.03162277660168379,1.3036949604804617,-0.057097596366805364
14864190,1862.0,1,203356.0,238970,0.54,-0.85,9.96,-0.03,-0.01,-0.0,31.91,12.945704,65.75539100562904,59.11631979250847,10.01077919045266,0.03162277660168379,1.2027459230390734,0.10997877980684093
14904188,1833.0,1,203387.0,239321,0.54,-0.84,9.95,-0.03,-0.01,-0.0,31.91,12.985702,-6.3843728810680185,255.5544682601895,9.99998499998875,0.03162277660168379,-0.10993512260944532,0.4608652873900632
14944191,1831.0,1,203479.0,239589,0.54,-0.85,9.97,-0.03,-0.01,-0.0,31.91,13.025705,44.927975075626534,481.4826832460228,10.02072851643033,0.03162277660168379,0.8237627846399486,0.8644282558830858
14984190,1839.0,1,203620.0,239625,0.55,-0.83,9.96,-0.03,-0.01,-0.0,31.91,13.065704,2.463761323090265,672.9281839940226,10.00964534836275,0.03162277660168379,0.051068704314567455,1.2063966753270252
15024214,1682.0,1,203586.0,239660,0.55,-0.84,9.95,-0.03,-0.01,-0.0,31.91,13.105728,-91.15021025539976,811.8464866763678,10.000529985955744,0.03162277660168379,-1.6523647348628467,1.4545386907544249
15064187,1778.0,1,203587.0,239610,0.55,-0.84,9.97,-0.03,-0.01,-0.0,31.91,13.145701,-54.219373143642564,926.2820051296319,10.020429132527209,0.03162277660168379,-0.9803579626660748,1.6589484743263134
15104191,1738.0,1,203511.0,239698,0.56,-0.85,9.97,-0.03,-0.01,-0.0,31.91,13.185705,-31.625982292532797,1052.6424026636487,10.021826180891386,0.03162277660168379,-0.5692405105246834,1.8846590042483236
15144187,1802.0,1,203518.0,239777,0.55,-0.84,9.95,-0.03,-0.01,-0.0,31.91,13.225701,-16.556221914049967,1185.2356293963524,10.000529985955744,0.03162277660168379,-0.29502573984191827,2.1215028893101056
15184191,1781.0,1,203393.0,239663,0.55,-0.84,9.95,-0.03,-0.01,-0.0,31.91,13.265705,4.664847429724289,1252.6407675349012,10.000529985955744,0.03162277660168379,0.09112045741645948,2.2419049278097267
15224191,1811.0,1,203126.0,239558,0.54,-0.84,9.95,-0.03,-0.01,-0.0,31.91,13.305705,6.036243039958651,1147.966846166567,9.99998499998875,0.03162277660168379,0.11607486434337483,2.0549317406234384
15264191,1747.0,1,202828.0,238828,0.54,-0.85,9.97,-0.03,-0.01,-0.0,31.91,13.345705,-31.278924633104836,802.2826541819816,10.02072851643033,0.03162277660168379,-0.5629253247417947,1.4374553502259009
15304187,1728.0,1,202066.0,237137,0.55,-0.85,9.97,-0.03,-0.01,-0.0,31.91,13.385701,-80.05686983503124,251.09023279212644,10.021272374304573,0.03162277660168379,-1.4505063294816554,0.452891072581805
15344877,1679.5,1,201000.0,235348,0.54,-0.84,9.95,-0.03,-0.01,0.0,31.75,13.426391,-85.49802694361695,-362.52307685839753,9.99998499998875,0.03162277660168379,-1.5495155778908158,-0.64317215601902
15383191,1679.5,1,200466.0,234622,0.53,-0.82,9.96,-0.03,-0.01,-0.0,31.75,13.464705,-149.092213746567,-860.9522666042346,10.007742003069424,0.03162277660168379,-2.7066982346122312,-1.5334884160311433
15424191,1679.5,1,200085.0,234318,0.53,-0.85,9.95,-0.03,-0.01,-0.0,31.75,13.505705,-68.09234399602508,-1131.2603178124339,10.000294995648877,0.03162277660168379,-1.2327955214215875,-2.0163246105276342
15464188,1965.0,1,199917.0,234318,0.54,-0.86,9.97,-0.03,-0.01,-0.0,31.75,13.545702,117.62301031467688,-1176.8598310108073,10.021581711486466,0.03162277660168379,2.1465477471874825,-2.097776477481597
15504191,1727.0,1,199853.0,234265,0.53,-0.84,9.95,-0.03,-0.01,-0.0,31.75,13.585705,-20.09686599797182,-1088.9724420195773,9.999449984874168,0.03162277660168379,-0.3594525708702472,-1.9407881367529907
15544190,1679.5,1,199828.0,234063,0.53,-0.84,9.98,-0.03,-0.01,-0.0,31.75,13.625704,-169.22261990766373,-970.7672044429006,10.029302069436339,0.03162277660168379,-3.0729983329932113,-1.7296447141802154
15584191,1679.5,1,199620.0,233927,0.53,-0.85,9.94,-0.03,-0.01,-0.0,31.75,13.665705,-89.51559370212586,-877.0476540389187,9.990345339376411,0.03162277660168379,-1.6226206651462332,-1.562238708829206
15624204,1722.0,1,199545.0,233893,0.54,-0.83,9.97,-0.03,-0.01,-0.0,31.75,13.705718,-114.70643729762114,-806.2542038856891,10.019051851348012,0.03162277660168379,-2.0810023000464946,-1.4357843175727107
15664191,1679.5,1,199543.0,234048,0.54,-0.84,9.95,-0.03,-0.01,0.0,31.75,13.745705,-122.58466393099168,-731.3354638260301,9.99998499998875,0.03162277660168379,-2.224357340564667,-1.3019611510588296
15704190,1810.0,1,199623.0,234186,0.52,-0.84,9.98,-0.03,-0.01,-0.0,31.75,13.785704,-14.444668010187307,-630.3446413633291,10.02877858963892,0.03162277660168379,-0.25660314684841967,-1.121566878009954
15744191,1737.0,1,199571.0,234221,0.53,-0.87,9.97,-0.03,-0.01,-0.0,31.75,13.825705,-95.38495445107198,-494.8155779031809,10.021910995413998,0.03162277660168379,-1.7294216607430004,-0.8794788715584968
15784191,1679.5,1,199579.0,234101,0.54,-0.84,9.97,-0.03,-0.01,0.0,31.75,13.865705,-144.05939449330197,-326.4910096294049,10.019885228883613,0.03162277660168379,-2.615119248433234,-0.5788100841424099
15824228,1920.0,1,199536.0,234150,0.52,-0.85,9.97,-0.03,-0.01,-0.0,31.75,13.905742,70.11488324827188,-141.05452064152405,10.019670653269998,0.03162277660168379,1.282072809173009,-0.24757522723192882
15864191,1987.5,1,199683.0,234252,0.52,-0.84,9.97,-0.03,-0.01,-0.0,31.75,13.945705,149.44069953855006,24.01142794385935,10.018827276682636,0.03162277660168379,2.7255138445275295,0.047272869595689625
15904191,1953.0,1,199773.0,234299,0.52,-0.85,9.96,-0.03,-0.01,-0.0,31.75,13.985705,97.00137000463668,118.39252765481449,10.009720275811908,0.03162277660168379,1.771308975853453,0.21586056357351946
15944191,1987.5,1,199733.0,233323,0.53,-0.85,9.96,-0.03,-0.01,-0.0,31.75,14.025705,128.51482374103492,112.38822767979764,10.010244752252564,0.03162277660168379,2.344739095026878,0.2051354174389726
15984191,1952.0,1,199393.0,232525,0.54,-0.86,9.95,-0.03,-0.01,-0.0,31.75,14.065705,90.72232666237824,31.30059428311991,10.001684858062665,0.03162277660168379,1.6570532486911949,0.06029310084877089
16024243,1913.0,1,199269.0,232365,0.54,-0.85,9.98,-0.03,-0.01,-0.0,31.75,14.105757,36.84376465297177,-43.35581128134354,10.030677943190081,0.03162277660168379,0.6766595891329555,-0.07306147218896625
16064191,1897.0,1,199338.0,232558,0.54,-0.84,9.96,-0.03,-0.01,-0.0,31.75,14.145705,27.44681244142033,-15.179693708576874,10.009935064724447,0.03162277660168379,0.5056692726919119,-0.02273204499021137
16104188,1904.0,1,199489.0,232920,0.56,-0.86,9.95,-0.03,-0.01,-0.0,31.75,14.185702,14.283166901902266,167.80145487188463,10.002784612296717,0.03162277660168379,0.26613885201434306,0.30411697430569307
16144191,1933.0,1,199754.0,233290,0.53,-0.84,9.96,-0.03,-0.01,-0.0,31.75,14.225705,56.31654562491672,472.04656538983124,10.009400581453418,0.03162277660168379,1.0309933034501293,0.8475730448890385
16184191,1965.0,1,199913.0,233588,0.54,-0.85,9.98,-0.03,-0.01,0.0,31.75,14.265705,63.0256781429165,780.0405844683219,10.030677943190081,0.03162277660168379,1.1530750876787919,1.3977255817256005
16224191,1904.0,1,200002.0,235048,0.52,-0.82,9.96,-0.03,-0.01,0.0,31.75,14.305705,21.78314377830247,940.1527994676796,10.00721739546014,0.03162277660168379,0.4026111241431435,1.6837251005603133
16264191,1936.0,1,200230.0,237444,0.58,-0.85,9.919999999999998,-0.03,-0.01,0.0,31.75,14.345705,26.60398811177416,849.3346574039294,9.973229166122673,0.03162277660168379,0.4903329385714454,1.5215017190912647
16304170,1929.0,1,199979.0,237739,0.4550000000000001,-0.82,10.000000000000004,-0.03,-0.01,0.0,31.75,14.385684,38.964213039390515,526.3125874694244,10.043874999222167,0.03162277660168379,0.7152440293246313,0.9445054132526879
16344171,1965.0,1,199171.0,235924,0.47,-0.81,9.99,-0.03,-0.01,-0.0,31.75,14.425685,56.442522850531624,119.23602941947104,10.033797885147976,0.03162277660168379,1.033285630279862,0.21736726372646514
16384877,1962.0,1,198890.0,235464,0.51,-0.83,9.919999999999998,-0.03,-0.01,0.0,32.35,14.466391,61.862834609708074,-175.34313588097038,9.967717893279282,0.03162277660168379,1.1319155692265956,-0.30882306806674326
16423168,1932.0,1,199102.0,235761,0.53,-0.84,9.95,-0.03,-0.01,-0.0,32.35,14.504682,29.970388182879862,-234.21153599127985,9.999449984874168,0.03162277660168379,0.5515891629798145,-0.41397640759293364
16464191,1920.0,1,199360.0,236050,0.52,-0.86,9.96,-0.03,-0.01,-0.0,32.35,14.545705,12.269065193904467,-80.45947793316923,10.010574409093618,0.03162277660168379,0.2294895341672609,-0.13933768234237828
16504188,1895.0,1,199582.0,236430,0.51,-0.81,9.96,-0.03,-0.01,-0.0,32.35,14.585702,0.27279915999048293,143.62076166494415,10.005888266415932,0.03162277660168379,0.011201170124252226,0.26092435079284915
16544190,1887.0,1,199633.0,236866,0.55,-0.83,9.93,-0.03,-0.01,-0.0,32.35,14.625704,-21.954121020523335,274.1185467430621,9.979794587064404,0.03162277660168379,-0.39324785011274643,0.49402526530762997
16584190,1860.0,1,199638.0,237147,0.52,-0.84,9.95,-0.03,-0.01,-0.0,32.35,14.665704,-29.007378543545027,219.6257266353287,9.998924942212536,0.03162277660168379,-0.5215914564917484,0.3966877802767669
16624190,1891.0,1,199626.0,236561,0.52,-0.87,9.96,-0.03,-0.01,-0.0,32.35,14.705704,-12.211267214202435,-1.9771930264411421,10.011438458083834,0.03162277660168379,-0.21596338405642798,0.0008508455626482791
16664188,1894.0,1,199333.0,235246,0.52,-0.83,9.99,-0.03,-0.01,-0.0,32.35,14.745702,9.07199073642403,-290.4403380926177,10.03789818637348,0.03162277660168379,0.17131441942121042,-0.5144147804285066
16704191,1886.0,1,199124.0,234142,0.52,-0.81,10.0,-0.03,-0.01,-0.0,32.35,14.785705,-5.426146529892133,-526.7300758915129,10.046218193927505,0.03162277660168379,-0.09249889186983405,-0.9364859591723367
16744187,1863.0,1,199077.0,233530,0.51,-0.84,9.94,-0.03,-0.01,-0.0,32.35,14.825701,-18.917092912615043,-635.5854307801399,9.988458339503648,0.03162277660168379,-0.3379849962085606,-1.1309282078218486
16784191,1879.0,1,199265.0,233333,0.53,-0.86,9.96,-0.03,-0.01,-0.0,32.35,14.865705,3.544175731852129,-614.8541903391621,10.01109884078666,0.03162277660168379,0.07072831282194685,-1.0938971493795542
16824190,1875.0,1,199433.0,233538,0.51,-0.85,9.97,-0.03,-0.01,-0.0,32.35,14.905704,-3.0050802804326846,-519.3186015116303,10.019156651135864,0.03162277660168379,-0.048444301104659374,-0.9232472558884508
16864190,1843.0,1,199541.0,233922,0.51,-0.8,10.000000000000004,-0.03,-0.01,0.0,32.35,14.945704,-16.299933629333,-414.63204772058594,10.044904180727663,0.03162277660168379,-0.29036222619224616,-0.7362515041100931
16904187,1872.0,1,199736.0,234442,0.55,-0.81,9.919999999999998,-0.03,-0.01,-0.0,32.35,14.985701,2.495092743659834,-334.28735163669285,9.96819943620712,0.03162277660168379,0.05163882209287777,-0.5927362550017922
16944191,1843.0,1,199868.0,234743,0.55,-0.85,9.95,-0.03,-0.01,-0.0,32.35,15.025705,-4.276606370740253,-266.04419308269405,10.001374905481745,0.03162277660168379,-0.07158144638858098,-0.4708373073775715
16984190,1838.0,1,200063.0,235110,0.52,-0.85,9.99,-0.03,-0.01,-0.0,32.35,15.065704,-16.767572835214125,-171.74608968831217,10.03957170401208,0.03162277660168379,-0.29887155708950847,-0.3023978650906267
17024217,1834.0,1,200288.0,235530,0.52,-0.84,9.96,-0.03,-0.01,0.0,32.35,15.105731,-5.751732803459573,-24.02097728391947,10.008876060777254,0.03162277660168379,-0.09842337660624896,-0.03852473668734
17064191,1828.0,1,200486.0,236043,0.53,-0.84,9.94,-0.03,-0.01,-0.0,32.35,15.145705,-8.79905520119172,164.7582698147467,9.989499486961297,0.03162277660168379,-0.15387354910426065,0.298681102582415
17104190,1821.0,1,200739.0,236679,0.52,-0.86,9.95,-0.03,-0.01,-0.0,32.35,15.185704,-12.267360306645129,341.2478127714991,10.00062498046997,0.03162277660168379,-0.21698407410688314,0.6139345288446901
17144188,1823.0,1,200987.0,237338,0.55,-0.83,9.95,-0.03,-0.01,-0.0,32.35,15.225702,2.422486489586283,442.10860366200956,9.999694995348607,0.03162277660168379,0.05031765262429479,0.7940965337491271
17184191,1825.0,1,201070.0,237871,0.53,-0.83,9.95,-0.03,-0.01,0.0,32.35,15.265705,0.647801153211635,439.37732824077506,9.998614904075463,0.03162277660168379,0.018024841038326227,0.7892178088106128
17224191,1815.0,1,200992.0,238234,0.51,-0.85,9.97,-0.03,-0.01,-0.0,32.35,15.305705,5.762637902130272,366.49519992266465,10.019156651135864,0.03162277660168379,0.11109624701682722,0.6590325282515187
17264190,1839.0,1,200994.0,238554,0.52,-0.85,9.95,-0.03,-0.01,0.0,32.35,15.345704,26.290839948954904,299.2925655976553,9.999769997354939,0.03162277660168379,0.4846347821641398,0.5389922110186647
17304191,1782.0,1,200950.0,238669,0.54,-0.85,9.96,-0.03,-0.01,-0.0,32.35,15.385705,-19.585203138689717,300.22794914106464,10.01077919045266,0.03162277660168379,-0.35014216976889573,0.540663034467969
17344190,1739.0,1,201060.0,238762,0.53,-0.83,9.98,-0.03,-0.01,-0.0,32.35,15.425704,-63.346725279347964,368.86430762437595,10.028469474451224,0.03162277660168379,-1.1464425393264293,0.6632643331938197
17384874,1747.0,1,201401.0,238557,0.53,-0.84,9.95,-0.03,-0.01,-0.0,32.03,15.466388,-46.35941309459677,442.5796293394977,9.999449984874168,0.03162277660168379,-0.837335307474939,0.79493790064372
17423191,1739.0,1,201472.0,237175,0.54,-0.86,9.96,-0.03,-0.01,0.0,32.03,15.504705,-58.09172486631134,450.1885700198951,10.01163323339404,0.03162277660168379,-1.0508206649895162,0.8085293269658421
17464168,1728.0,1,201226.0,236109,0.55,-0.85,9.96,-0.03,-0.01,-0.0,32.03,15.545682,-56.02193501515976,371.5807134900943,10.011323588816817,0.03162277660168379,-1.0131580256946382,0.668116497474717
17504190,1755.0,1,201119.0,235628,0.53,-0.82,9.93,-0.03,-0.01,0.0,32.03,15.585704,-39.30470056610021,249.10174045597998,9.977885547549642,0.03162277660168379,-0.7089652252938928,0.44933913963685956
17544168,1734.0,1,201076.0,235389,0.54,-0.85,9.95,-0.03,-0.01,0.0,32.03,15.625682,-44.98401589024973,143.01218793014831,10.000829965557857,0.03162277660168379,-0.8123080861047668,0.25983728947571133
17584170,1773.0,1,201109.0,235329,0.56,-0.84,9.95,-0.03,-0.01,-0.0,32.03,15.665684,-15.594186906244438,77.02720245739435,10.001084941145134,0.03162277660168379,-0.2775202054187661,0.14197199046901876
17624187,1774.0,1,201118.0,235413,0.53,-0.84,9.94,-0.03,-0.01,-0.0,32.03,15.705701,-7.212352333684423,25.460246656840674,9.989499486961297,0.03162277660168379,-0.12500133401738722,0.04986081364975851
17664190,1764.0,1,201089.0,235560,0.52,-0.82,9.95,-0.03,-0.01,0.0,32.03,15.745704,-16.902384233956298,-51.066869370098075,9.997264625886423,0.03162277660168379,-0.3013246337053975,-0.08683530514168109
17704190,1791.0,1,200874.0,235545,0.53,-0.82,9.96,-0.03,-0.01,0.0,32.03,15.785704,5.0153440652389225,-160.48442766225986,10.007742003069424,0.03162277660168379,0.0974982200429945,-0.2822817863720665
17744191,1783.0,1,200773.0,235808,0.54,-0.85,9.94,-0.03,-0.01,0.0,32.03,15.825705,5.571132196661239,-267.79322817161113,9.990880842047911,0.03162277660168379,0.1076115404395008,-0.47396151119835633
17784190,1782.0,1,200814.0,236058,0.54,-0.84,9.919999999999998,-0.03,-0.01,-0.0,32.03,15.865704,-5.569153053880076,-324.419391963868,9.970135405299166,0.03162277660168379,-0.09510108992717578,-0.5751096690581803
17824191,1778.0,1,200820.0,236265,0.52,-0.81,9.99,-0.03,-0.01,-0.0,32.03,15.905705,-2.7870795595902567,-308.4540025092235,10.03626424522591,0.03162277660168379,-0.04447748171449583,-0.5465915844007703
17864191,1810.0,1,200900.0,236506,0.53,-0.84,9.97,-0.03,-0.01,-0.0,32.03,15.945705,23.75626645605419,-240.25368159355835,10.019351276405075,0.03162277660168379,0.4385147728422426,-0.4247691552604858
17904190,1827.0,1,201009.0,236752,0.53,-0.85,9.93,-0.03,-0.01,-0.0,32.03,15.985704,39.40865751998067,-162.52520029319686,9.980395783735233,0.03162277660168379,0.7233313006723738,-0.28592710469148
17944190,1795.0,1,201086.0,236987,0.53,-0.85,9.98,-0.03,-0.01,-0.0,32.03,16.025704,9.199920510288738,-103.86334851850427,10.030144565259267,0.03162277660168379,0.17364227551996417,-0.1811427109362464
17984190,1811.0,1,201181.0,237191,0.53,-0.85,9.97,-0.03,-0.01,-0.0,32.03,16.065704,16.82722833273947,-57.42320007507114,10.020194608888593,0.03162277660168379,0.31243150726160085,-0.09818926413340386
18024212,1820.0,1,201171.0,237390,0.53,-0.83,9.98,-0.03,-0.01,-0.0,32.03,16.105726,32.34459513908495,5.4033533549163915,10.028469474451224,0.03162277660168379,0.5947910852199841,0.014034303887886004
18064190,1808.0,1,201249.0,237576,0.55,-0.85,9.96,-0.03,-0.01,0.0,32.03,16.145704,8.143621298750933,95.45740828220977,10.011323588816817,0.03162277660168379,0.1544214757998968,0.1748928391247136
18104190,1818.0,1,201323.0,237716,0.53,-0.86,9.97,-0.03,-0.01,-0.0,32.03,16.185704,26.313904795696477,175.52473290862716,10.021047849401779,0.03162277660168379,0.4850544783969415,0.31791263506988854
18144191,1835.0,1,201491.0,237760,0.53,-0.83,9.95,-0.03,-0.01,-0.0,32.03,16.225705,31.948086852101714,173.04520108523093,9.998614904075463,0.03162277660168379,0.5875760780627257,0.31348358567831325
18182190,1813.0,1,201412.0,236609,0.54,-0.82,9.97,-0.03,-0.01,-0.0,32.03,16.263704,12.744270750742286,34.54846994381887,10.018228386296652,0.03162277660168379,0.2381365451032488,0.06609459997985595
18222191,1826.0,1,201021.0,235183,0.54,-0.84,9.95,-0.03,-0.01,-0.0,32.03,16.303705,25.436230240532737,-221.082046966851,9.99998499998875,0.03162277660168379,0.469083997059895,-0.39052393369175536
18262191,1829.0,1,200722.0,234385,0.53,-0.86,9.96,-0.03,-0.01,-0.0,32.03,16.343705,14.783925974676599,-499.5363172516546,10.01109884078666,0.03162277660168379,0.27525084390136684,-0.8879112649409318
18302191,1827.0,1,200562.0,234124,0.51,-0.84,10.000000000000004,-0.03,-0.01,-0.0,32.03,16.383705,32.44932063888618,-685.9815276485781,10.04816898743249,0.03162277660168379,0.596696708016325,-1.2209479446394218
18342191,1883.0,1,200651.0,234284,0.54,-0.85,9.95,-0.03,-0.01,-0.0,32.03,16.423705,55.79302552775397,-715.0329411424595,10.000829965557857,0.03162277660168379,1.02146714379093,-1.2728408641193736
18382191,1803.0,1,200785.0,234695,0.52,-0.85,9.94,-0.03,-0.01,-0.0,32.03,16.463705,10.002188348122582,-601.9588210514795,9.98981981819492,0.03162277660168379,0.18824062915350173,-1.070862870505279
18422877,1835.0,1,201015.0,235270,0.54,-0.84,9.97,-0.03,-0.01,-0.0,32.17,16.504391,3.272673462942315,-417.60608761488686,10.019885228883613,0.03162277660168379,0.06578796005328187,-0.7415638656858087
18463191,1813.0,1,201129.0,235612,0.53,-0.85,9.97,-0.03,-0.01,-0.0,32.17,16.544705,13.413744579090999,-234.97045236062982,10.020194608888593,0.03162277660168379,0.2503185312601672,-0.4153320175722894
18503190,1819.0,1,201339.0,235845,0.52,-0.82,9.97,-0.03,-0.01,-0.0,32.17,16.584704,-9.474629172188179,-90.09921143320459,10.017170259110106,0.03162277660168379,-0.1661665356470692,-0.1565566006036492
18543191,1810.0,1,201471.0,235954,0.53,-0.83,9.96,-0.03,-0.01,-0.0,32.17,16.624705,0.3784445670612573,20.770812024935076,10.008566330898748,0.03162277660168379,0.013123531883564842,0.04148433813639921
18583191,1837.0,1,201635.0,236292,0.52,-0.85,9.96,-0.03,-0.01,-0.0,32.17,16.664705,13.362708876561612,117.08639507575649,10.009720275811908,0.03162277660168379,0.24938986729244333,0.21352749180165978
18623191,1823.0,1,201701.0,236496,0.55,-0.83,9.98,-0.03,-0.01,-0.0,32.17,16.704705,5.520470345920877,208.2341927234809,10.029546350658139,0.03162277660168379,0.10668967921316248,0.37633971865266874
18663187,1819.0,1,201822.0,236812,0.55,-0.85,9.94,-0.03,-0.01,-0.0,32.17,16.744701,-1.702603526276567,286.4341224950868,9.991426324604511,0.03162277660168379,-0.024743966428434773,0.5160238913291715
18703190,1813.0,1,201980.0,237108,0.53,-0.85,9.96,-0.03,-0.01,-0.0,32.17,16.784704,-9.029493551882824,340.8802660994356,10.010244752252564,0.03162277660168379,-0.1580666880729134,0.6132780007255838
18743190,1802.0,1,202029.0,237351,0.55,-0.84,9.95,-0.03,-0.01,-0.0,32.17,16.824704,-17.151749987252,377.7385513129505,10.000529985955744,0.03162277660168379,-0.3058621824877757,0.679115899702749
18783191,1808.0,1,202070.0,237630,0.55,-0.84,9.96,-0.03,-0.01,-0.0,32.17,16.864705,-16.531269918730768,423.8907865393718,10.010479508994562,0.03162277660168379,-0.29457170437601254,0.7615550631854097
18823187,1813.0,1,202190.0,237869,0.52,-0.84,9.94,-0.03,-0.01,-0.0,32.17,16.904701,-5.1556113441562506,504.4011766671479,9.9889739212794,0.03162277660168379,-0.08757613649383564,0.9053662823221342
18863191,1811.0,1,202294.0,238122,0.55,-0.85,9.96,-0.03,-0.01,-0.0,32.17,16.944705,-14.067748064862274,608.559507053146,10.011323588816817,0.03162277660168379,-0.24974457618921786,1.0914184980955655
18903190,1797.0,1,202379.0,238276,0.55,-0.86,9.95,-0.03,-0.01,-0.0,32.17,16.984704,-21.72557931000298,676.2976867797337,10.002229751410432,0.03162277660168379,-0.3890892230896341,1.2124154302073413
18943190,1815.0,1,202444.0,238594,0.52,-0.85,9.94,-0.03,-0.01,-0.0,32.17,17.024704,-7.419155905284055,626.8817073212869,9.98981981819492,0.03162277660168379,-0.12876440605956385,1.1241464224497602
18983190,1805.0,1,202409.0,237718,0.55,-0.86,9.96,-0.03,-0.01,-0.0,32.17,17.064704,-16.809652773586194,417.3312777853552,10.012177585320789,0.03162277660168379,-0.2996372587570358,0.7498381785776467
19023201,1791.0,1,201921.0,235959,0.53,-0.85,9.96,-0.03,-0.01,-0.0,32.17,17.104715,-26.105117613345072,86.18901696521445,10.010244752252564,0.03162277660168379,-0.4687808745416424,0.1583372286920984
19063187,1813.0,1,201468.0,235093,0.57,-0.85,9.97,-0.03,-0.01,-0.0,32.17,17.144701,-12.561486379036403,-257.8269628871185,10.022389934541561,0.03162277660168379,-0.22233609772683105,-0.4561593274239614
19103196,1797.0,1,201401.0,235027,0.51,-0.85,9.96,-0.03,-0.01,-0.0,32.17,17.18471,-15.32150360098033,-498.7406746279887,10.00920576269666,0.03162277660168379,-0.27255836208854434,-0.8864900529020266
19143190,1808.0,1,201471.0,235070,0.54,-0.84,9.96,-0.03,-0.01,-0.0,32.17,17.224704,-18.710322590720303,-579.641516373401,10.009935064724447,0.03162277660168379,-0.33422252918995254,-1.0309987139845305
19183191,1808.0,1,201434.0,235268,0.53,-0.83,9.97,-0.03,-0.01,-0.0,32.17,17.264705,-2.917256346275801,-523.9894735178568,10.018517854453323,0.03162277660168379,-0.046846225265333205,-0.931590574018955
19223188,1825.0,1,201563.0,235817,0.54,-0.84,9.95,-0.03,-0.01,-0.0,32.17,17.304702,1.1955855233248631,-404.72411528356497,9.99998499998875,0.03162277660168379,0.02799252212028146,-0.7185535170474183
19263190,1804.0,1,201762.0,236074,0.54,-0.86,9.95,-0.03,-0.01,-0.0,32.17,17.344704,-9.080426593857247,-292.5631678278184,10.001684858062665,0.03162277660168379,-0.1589934839923186,-0.5182066727762445
19303213,1808.0,1,201793.0,236191,0.53,-0.83,9.98,-0.03,-0.01,-0.0,32.17,17.384727,-10.21236366058551,-220.26554934163158,10.028469474451224,0.03162277660168379,-0.17959061728339631,-0.3890654695268359
19343191,1811.0,1,201860.0,236419,0.53,-0.85,9.95,-0.03,-0.01,-0.0,32.17,17.424705,-5.360257319544017,-179.26247327461374,10.000294995648877,0.03162277660168379,-0.09129994814065075,-0.3158239618382609
19383191,1814.0,1,201925.0,236646,0.53,-0.85,9.96,-0.03,-0.01,-0.0,32.17,17.464705,0.615530254436518,-141.16610559493648,10.010244752252564,0.03162277660168379,0.017437628177265702,-0.2477745452101685
19423877,1817.0,1,202026.0,236824,0.56,-0.84,9.96,-0.03,-0.01,-0.0,32.53,17.505391,-0.11265591474825534,-84.08145232593439,10.011033912638595,0.03162277660168379,0.004187291185678656,-0.14580741317188833
19462190,1818.0,1,202095.0,237001,0.54,-0.83,9.94,-0.03,-0.01,-0.0,32.53,17.543704,5.473325159567186,-6.441762436165748,9.989199167100434,0.03162277660168379,0.10583180847467134,-0.007123965746973143
19502191,1841.0,1,202198.0,237117,0.54,-0.84,9.96,-0.03,-0.01,-0.0,32.53,17.583705,27.375583779370196,76.3398110700575,10.009935064724447,0.03162277660168379,0.5043731703824148,0.14074414157547707
19542188,1830.0,1,202263.0,237333,0.54,-0.85,9.98,-0.03,-0.01,-0.0,32.53,17.623702,14.678591399619897,145.6239829853828,10.030677943190081,0.03162277660168379,0.2733341381529873,0.2645025933008751
19582191,1797.0,1,202319.0,237464,0.55,-0.85,9.99,-0.03,-0.01,-0.0,32.53,17.663705,-11.408783430864219,193.32994123582085,10.041170250523592,0.03162277660168379,-0.20136110100095708,0.3497170855570025
19622191,1810.0,1,202390.0,237696,0.55,-0.83,9.96,-0.03,-0.01,-0.0,32.53,17.703705,-7.8263584910995725,228.27204932319245,10.00964534836275,0.03162277660168379,-0.1361740105181898,0.4121322242152172
19662191,1803.0,1,202392.0,237877,0.53,-0.85,9.98,-0.03,-0.01,-0.0,32.53,17.743705,-2.5582112166115762,272.16082644189146,10.030144565259267,0.03162277660168379,-0.0403129111698936,0.490528298732344
19702191,1821.0,1,202552.0,238020,0.52,-0.85,9.97,-0.03,-0.01,-0.0,32.53,17.783705,3.7475344705771785,346.14612112058717,10.019670653269998,0.03162277660168379,0.07442870144826154,0.6226841038283905
19742191,1804.0,1,202650.0,238260,0.53,-0.85,9.95,-0.03,-0.01,-0.0,32.53,17.823705,-1.6448910899109022,452.31914964041835,10.000294995648877,0.03162277660168379,-0.02369381021452769,0.8123350625014546
19782191,1808.0,1,202652.0,238392,0.53,-0.83,9.96,-0.03,-0.01,-0.0,32.53,17.863705,-7.211652061047692,559.2454463637022,10.008566330898748,0.03162277660168379,-0.12498859160505459,1.0033315421501783
19822191,1808.0,1,202685.0,238484,0.55,-0.85,9.94,-0.03,-0.01,-0.0,32.53,17.903705,2.1859479955797165,604.6358195404796,9.991426324604511,0.03162277660168379,0.046013513257601855,1.08440983394908
19862191,1808.0,1,202827.0,238458,0.52,-0.82,9.96,-0.03,-0.01,-0.0,32.53,17.943705,-6.331751277046717,523.8844820056019,10.00721739546014,0.03162277660168379,-0.1089776010087526,0.940168223898734
19902191,1808.0,1,202544.0,236805,0.55,-0.85,9.96,-0.03,-0.01,-0.0,32.53,17.983705,3.1074551707596205,294.2452432311155,10.011323588816817,0.03162277660168379,0.06278158868667646,0.5299764606073681
19942191,1833.0,1,202123.0,234967,0.54,-0.84,9.94,-0.03,-0.01,-0.0,32.53,18.023705,19.126497958312026,-36.740033642595115,9.990035034973602,0.03162277660168379,0.35426984292714125,-0.06124407761100046
19982191,1808.0,1,201693.0,234056,0.53,-0.84,9.94,-0.03,-0.01,-0.0,32.53,18.063705,3.0817190107803984,-366.59145571547145,9.989499486961297,0.03162277660168379,0.06231328427906067,-0.6504392742433549
20022191,1819.0,1,201685.0,233863,0.53,-0.84,9.96,-0.03,-0.01,-0.0,32.53,18.103705,7.179427759698729,-591.5970229133213,10.009400581453418,0.03162277660168379,0.13687666396715403,-1.0523541684566091
20062191,1831.0,1,201566.0,233811,0.55,-0.85,9.96,-0.03,-0.01,-0.0,32.53,18.143705,24.443754418332176,-661.524532182944,10.011323588816817,0.03162277660168379,0.45102455064815883,-1.177261777813598
20102188,1837.0,1,201577.0,234241,0.53,-0.84,9.97,-0.03,-0.01,-0.0,32.53,18.183702,27.500707238917336,-599.3629214691218,10.019351276405075,0.03162277660168379,0.5066499617782318,-1.0662259598766894
20142190,1821.0,1,201778.0,234623,0.53,-0.83,9.97,-0.03,-0.01,-0.0,32.53,18.223704,14.04250200364972,-478.721991768773,10.018517854453323,0.03162277660168379,0.26175962711439427,-0.8507317963226435
20182188,1808.0,1,201854.0,234916,0.55,-0.83,9.95,-0.03,-0.01,0.0,32.53,18.263702,-2.0316334736156487,-378.248597933962,9.999694995348607,0.03162277660168379,-0.030731113489258315,-0.6712617771703769
20222191,1821.0,1,201890.0,235200,0.53,-0.83,9.95,-0.03,-0.01,0.0,32.53,18.303705,16.65858151852729,-340.70481542078153,9.998614904075463,0.03162277660168379,0.3093627492771273,-0.604199412602828
20262191,1837.0,1,201897.0,235193,0.53,-0.86,9.95,-0.03,-0.01,-0.0,32.53,18.343705,24.169505980862034,-356.6586588187137,10.001149933882603,0.03162277660168379,0.44603422761035133,-0.6326968731831545
20302191,1808.0,1,201925.0,235241,0.53,-0.85,9.97,-0.03,-0.01,-0.0,32.53,18.383705,6.140978069890935,-377.6133451027973,10.020194608888593,0.03162277660168379,0.11798066055340224,-0.6701270604715154
20342191,1808.0,1,201946.0,235117,0.53,-0.84,9.96,-0.03,-0.01,-0.0,32.53,18.423705,-5.279382931624671,-348.7882402048557,10.009400581453418,0.03162277660168379,-0.08982832873991511,-0.6186383834133378
20382191,1794.0,1,202009.0,235097,0.54,-0.84,9.96,-0.03,-0.01,-0.0,32.53,18.463705,-9.90587871575929,-243.04200990568916,10.009935064724447,0.03162277660168379,-0.17401370718313744,-0.4297497905956838
20422188,1812.0,1,202282.0,235635,0.54,-0.84,9.96,-0.03,-0.01,-0.0,32.53,18.503702,2.840545863526151,-76.88156926846158,10.009935064724447,0.03162277660168379,0.05792481109778888,-0.1329466636649773
20462877,1809.0,1,202464.0,236184,0.54,-0.82,9.95,-0.03,-0.01,-0.0,32.39,18.544391,-0.4850902470685094,101.53691672183724,9.998324859695247,0.03162277660168379,-0.00258965764871741,0.18575232594457933
20503188,1806.0,1,202575.0,236634,0.55,-0.83,9.94,-0.03,-0.01,-0.0,32.39,18.584702,1.3658467916582167,245.68202804857592,9.989744741483637,0.03162277660168379,0.03109065729161772,0.4432306981099306
20543191,1818.0,1,202822.0,237195,0.53,-0.84,9.96,-0.03,-0.01,-0.0,32.39,18.624705,5.148778969894641,342.9250036058738,10.009400581453418,0.03162277660168379,0.09992624947825272,0.6169304012809503
20583188,1775.0,1,202832.0,237347,0.53,-0.85,9.97,-0.03,-0.01,0.0,32.39,18.664702,-29.731099533136064,421.238775289704,10.020194608888593,0.03162277660168379,-0.5347605434722138,0.7568179234153286
20623191,1799.0,1,203013.0,237655,0.54,-0.83,9.94,-0.03,-0.01,-0.0,32.39,18.704705,-12.993373456909357,521.087308304672,9.989199167100434,0.03162277660168379,-0.23019487006596395,0.9351717885389067
20663188,1809.0,1,203035.0,238067,0.52,-0.83,9.96,-0.03,-0.01,-0.0,32.39,18.744702,1.5458340196623457,649.2785026592669,10.008041766499579,0.03162277660168379,0.034365769517254036,1.1641525687024212
20703191,1779.0,1,203242.0,238574,0.56,-0.83,9.96,-0.03,-0.01,0.0,32.39,18.784705,-33.028772472084896,751.4214328762741,10.010199798205829,0.03162277660168379,-0.5947661843072045,1.3466047875699754
20743194,1795.0,1,203294.0,238738,0.53,-0.86,9.99,-0.03,-0.01,-0.0,32.39,18.824708,-12.063040443026928,733.8831921024046,10.040946170555841,0.03162277660168379,-0.2132661965069183,1.3152772063323155
20783191,1805.0,1,203232.0,238119,0.51,-0.83,9.97,-0.03,-0.01,-0.0,32.39,18.864705,-11.322767826605563,529.9292744166867,10.017479722964255,0.03162277660168379,-0.19979593018174455,0.9509656994132218
20823191,1769.0,1,202871.0,235881,0.54,-0.84,9.97,-0.03,-0.01,-0.0,32.39,18.904705,-35.27728307100002,162.52856030413128,10.019885228883613,0.03162277660168379,-0.6356808904985283,0.29469829685344695
20863191,1806.0,1,202260.0,234700,0.55,-0.85,9.95,-0.03,-0.01,-0.0,32.39,18.944705,-14.242166767240649,-251.143382195039,10.001374905481745,0.03162277660168379,-0.2529183615231746,-0.44422082003378277
20903188,1783.0,1,202010.0,234451,0.55,-0.82,9.95,-0.03,-0.01,0.0,32.39,18.984702,-22.326618448895914,-564.8166298337003,9.998869936147784,0.03162277660168379,-0.4000259470655654,-1.0045178460685464
20943204,1792.0,1,202129.0,234759,0.54,-0.84,9.94,-0.03,-0.01,-0.0,32.39,19.024718,-26.580779590882575,-689.6820271492966,9.990035034973602,0.03162277660168379,-0.47743619067256077,-1.2275579404892565
20983188,1818.0,1,202202.0,235022,0.55,-0.85,9.96,-0.03,-0.01,-0.0,32.39,19.064702,5.894608125940331,-636.7676458946297,10.011323588816817,0.03162277660168379,0.11349762459352043,-1.13303993273868
21023201,1810.0,1,202320.0,235455,0.52,-0.84,9.95,-0.03,-0.01,-0.0,32.39,19.104715,-3.1202721479717903,-490.6242147303713,9.998924942212536,0.03162277660168379,-0.05054037368633472,-0.8719920733108435
21061191,1803.0,1,202444.0,235856,0.54,-0.83,9.96,-0.03,-0.01,-0.0,32.39,19.142705,-16.560519025351876,-345.264360027863,10.009100858718531,0.03162277660168379,-0.29510393162205656,-0.6123438728099142
21101191,1829.0,1,202651.0,236052,0.53,-0.84,9.97,-0.03,-0.01,-0.0,32.39,19.182705,18.3925511192201,-252.09506630664654,10.019351276405075,0.03162277660168379,0.3409146827175405,-0.4459207602788383
21141191,1841.0,1,202737.0,236299,0.54,-0.84,9.96,-0.03,-0.01,-0.0,32.39,19.222705,20.631825897890568,-207.45090057533815,10.009935064724447,0.03162277660168379,0.3816613306075477,-0.3661753772174486
21181191,1823.0,1,202736.0,236319,0.53,-0.85,9.94,-0.03,-0.01,0.0,32.39,19.262705,5.867243095368289,-175.08671278132485,9.990345339376411,0.03162277660168379,0.11299968067174754,-0.30836503378674146
21221190,1830.0,1,202884.0,236705,0.54,-0.84,9.97,-0.03,-0.01,-0.0,32.39,19.302704,18.91223621452696,-120.58927760582401,10.019885228883613,0.03162277660168379,0.35037105930600276,-0.2110193051177469
21261191,1849.0,1,202988.0,237081,0.55,-0.85,9.96,-0.03,-0.01,-0.0,32.39,19.342705,17.565023182294855,-34.21248449763906,10.011323588816817,0.03162277660168379,0.32585668725123274,-0.05672925755625684
21301191,1841.0,1,203228.0,237385,0.55,-0.84,9.97,-0.03,-0.01,-0.0,32.39,19.382705,42.613348850284204,68.60269326287909,10.020429132527209,0.03162277660168379,0.781645014771171,0.12692375960131358
21341190,1851.0,1,203238.0,237458,0.52,-0.83,9.98,-0.03,-0.01,-0.0,32.39,19.422704,9.110709392590799,162.99751279688627,10.027945951190603,0.03162277660168379,0.17201895799085315,0.2955359605337902
21381191,1746.0,1,203244.0,237845,0.57,-0.84,9.96,-0.03,-0.01,-0.0,32.39,19.462705,-49.64964342145799,232.59451473219943,10.01159827400201,0.03162277660168379,-0.8972055198680947,0.4198532030747043
21421191,1867.0,1,203522.0,238238,0.55,-0.85,9.99,-0.03,-0.01,0.0,32.39,19.502705,29.371940768220032,280.0810922630476,10.041170250523592,0.03162277660168379,0.540699598948594,0.504675827788155
21461190,1840.0,1,203638.0,238711,0.54,-0.84,9.98,-0.03,-0.01,-0.0,32.39,19.542704,33.24065232426742,327.6064016207944,10.02983549217035,0.03162277660168379,0.6110960634931817,0.5895676370035917
21501877,1808.0,1,203608.0,238985,0.56,-0.84,9.99,-0.03,-0.01,-0.0,32.21,19.583391,-15.430624438367905,403.77981024315955,10.040881435411933,0.03162277660168379,-0.27454396402576353,0.7256319479875087
21542191,1863.0,1,203701.0,239167,0.54,-0.84,9.96,-0.03,-0.01,-0.0,32.21,19.623705,43.02366037217564,516.814002018728,10.009935064724447,0.03162277660168379,0.7891111905469058,0.9275386198789253
21582191,1823.0,1,203915.0,239399,0.55,-0.84,9.96,-0.03,-0.01,-0.0,32.21,19.663705,9.860280676752895,629.1905469007946,10.010479508994562,0.03162277660168379,0.18565842621294765,1.1282705738070342
21622190,1794.0,1,203914.0,239675,0.54,-0.83,9.96,-0.03,-0.01,-0.0,32.21,19.703704,-30.596157664722284,661.9129908199346,10.009100858718531,0.03162277660168379,-0.5505014518358847,1.186720850171067
21662191,1840.0,1,203997.0,239663,0.55,-0.84,9.96,-0.03,-0.01,-0.0,32.21,19.743705,28.80453928806927,540.5788876554091,10.010479508994562,0.03162277660168379,0.5303749578888225,0.9699885095221359
21702191,1838.0,1,203731.0,238015,0.56,-0.85,9.95,-0.03,-0.01,-0.0,32.21,19.783705,15.670092927148575,256.2774171104994,10.001929813790936,0.03162277660168379,0.2913758559490509,0.4621566505963718
21742191,1802.0,1,203189.0,236412,0.53,-0.86,9.93,-0.03,-0.01,-0.0,32.21,19.823705,-10.35215252575504,-109.79222115236628,9.981252426424252,0.03162277660168379,-0.1821342656655696,-0.19173312541851206
21782191,1818.0,1,202864.0,235771,0.56,-0.82,9.97,-0.03,-0.01,-0.0,32.21,19.863705,-1.2607952433659542,-426.69771131727936,10.01932632465876,0.03162277660168379,-0.016704664280202675,-0.7578037259882906
21822191,1780.0,1,202874.0,235934,0.55,-0.84,9.99,-0.03,-0.01,-0.0,32.21,19.903705,-31.468387320759955,-593.304869072516,10.04032867987896,0.03162277660168379,-0.5663728558334283,-1.0554047987896873
21862190,1815.0,1,202850.0,236030,0.53,-0.85,9.98,-0.03,-0.01,-0.0,32.21,19.943704,-4.502752848799762,-596.040233859662,10.030144565259267,0.03162277660168379,-0.07569648890182143,-1.0602908283344308
21902191,1833.0,1,203003.0,236415,0.53,-0.83,9.93,-0.03,-0.01,-0.0,32.21,19.983705,27.265457442307543,-503.07343511551267,9.978712341780376,0.03162277660168379,0.5023692720120807,-0.8942294212860246
21942191,1804.0,1,203052.0,236771,0.54,-0.85,9.97,-0.03,-0.01,-0.0,32.21,20.023705,-20.097989234353022,-406.1431769174023,10.02072851643033,0.03162277660168379,-0.3594730096827405,-0.7210883076908173
21982191,1794.0,1,203181.0,236907,0.53,-0.83,9.96,-0.03,-0.01,0.0,32.21,20.063705,-3.5281366399163874,-358.64714160619985,10.008566330898748,0.03162277660168379,-0.05796202242654449,-0.6362487890718606
22022191,1833.0,1,203047.0,236565,0.52,-0.82,9.96,-0.03,-0.01,0.0,32.21,20.103705,6.217907605963083,-353.08226186778455,10.00721739546014,0.03162277660168379,0.11938049801351713,-0.6263085547957549
22062190,1788.0,1,203145.0,236706,0.56,-0.85,9.95,-0.03,-0.01,-0.0,32.21,20.143704,-8.20490031751081,-344.6584175225638,10.001929813790936,0.03162277660168379,-0.14306209350797675,-0.6112615115112603
22102187,1856.0,1,203180.0,237341,0.54,-0.83,9.96,-0.03,-0.01,-0.0,32.21,20.183701,37.20270961875521,-293.5149321415008,10.009100858718531,0.03162277660168379,0.6831910806104562,-0.5199067562817928
22142191,1786.0,1,203454.0,237979,0.57,-0.85,9.93,-0.03,-0.01,0.0,32.21,20.223705,-20.000133402125822,-191.38619571085943,9.98259986175946,0.03162277660168379,-0.35769238982414825,-0.33747989098311587
22182190,1744.0,1,203395.0,238366,0.52,-0.84,9.96,-0.03,-0.01,0.0,32.21,20.263704,-59.65375776023186,-59.84806839429267,10.008876060777254,0.03162277660168379,-1.079243976379188,-0.10252067115651997
22222190,1821.0,1,203594.0,238786,0.54,-0.84,9.97,-0.03,-0.01,-0.0,32.21,20.303704,4.562656316631007,68.0520250178139,10.019885228883613,0.03162277660168379,0.08926095123063438,0.1259401316306005
22262190,1790.0,1,203624.0,238967,0.56,-0.85,9.99,-0.03,-0.01,-0.0,32.21,20.343704,-5.166303924746935,165.6242586709134,10.041722959731562,0.03162277660168379,-0.08777070252946206,0.3002279701726291
22302191,1813.0,1,203750.0,239012,0.52,-0.82,9.93,-0.03,-0.01,-0.0,32.21,20.383705,-3.337401707506186,223.53666621370633,9.977359370093874,0.03162277660168379,-0.05449134111254461,0.40367367349929284
22342191,1810.0,1,203831.0,239268,0.54,-0.85,9.95,-0.03,-0.01,-0.0,32.21,20.423705,12.36605985159776,255.0235250091237,10.000829965557857,0.03162277660168379,0.23125448378482721,0.45991689307590067
22382205,1813.0,1,203822.0,239339,0.54,-0.84,9.98,-0.03,-0.01,-0.0,32.21,20.463719,3.2264160820964083,292.17515458730514,10.02983549217035,0.03162277660168379,0.06494624414257921,0.5262787767293621
22422190,1811.0,1,203842.0,239351,0.55,-0.85,9.99,-0.03,-0.01,-0.0,32.21,20.503704,9.655739987307154,366.96935996050246,10.041170250523592,0.03162277660168379,0.1819365303869368,0.6598794938791743
22462190,1782.0,1,204000.0,239821,0.53,-0.84,9.94,-0.03,-0.01,-0.0,32.21,20.543704,-25.573984816891514,481.20323595143714,9.989499486961297,0.03162277660168379,-0.4591161914727885,0.8639290947679173
22502877,1787.0,1,203981.0,240284,0.55,-0.84,9.95,-0.03,-0.01,-0.0,32.17,20.584391,-12.147966337833774,586.7781387826434,10.000529985955744,0.03162277660168379,-0.21481153858168275,1.0525116548859426
22541191,1840.0,1,204102.0,240658,0.54,-0.85,9.97,-0.03,-0.01,0.0,32.17,20.622705,29.06784150896288,600.7628905416499,10.02072851643033,0.03162277660168379,0.5351660996395363,1.0774918369046276
22581221,1808.0,1,204043.0,240246,0.51,-0.85,9.94,-0.03,-0.01,-0.0,32.17,20.662735,12.658068627078896,456.7827336007776,9.989304280078768,0.03162277660168379,0.23656798030997744,0.8203081135578416
22621191,1840.0,1,203700.0,238158,0.55,-0.86,9.98,-0.03,-0.01,-0.0,32.17,20.702705,26.957587220604267,159.9597394556858,10.03207356432358,0.03162277660168379,0.49676715491637974,0.29010975545683376
22661190,1815.0,1,203162.0,236668,0.56,-0.82,9.94,-0.03,-0.01,-0.0,32.17,20.742704,19.23079424398381,-200.33662082016363,9.98947446065107,0.03162277660168379,0.3561676555890724,-0.35346753611460946
22701190,1795.0,1,202836.0,236087,0.52,-0.85,9.96,-0.03,-0.01,-0.0,32.17,20.782704,-16.352045985349253,-496.99534804751414,10.009720275811908,0.03162277660168379,-0.2913104813333922,-0.8833724733830177
22741190,1793.0,1,202881.0,236247,0.54,-0.85,9.96,-0.03,-0.01,-0.0,32.17,20.822704,-6.422065767863941,-638.6918674622176,10.01077919045266,0.03162277660168379,-0.11062099591131105,-1.136477062394676
22781191,1778.0,1,202837.0,236295,0.56,-0.84,9.96,-0.03,-0.01,-0.0,32.17,20.862705,-30.890176955233198,-615.9296435582717,10.011033912638595,0.03162277660168379,-0.5558515324143972,-1.095818171477686
22821190,1745.0,1,202914.0,236656,0.55,-0.83,9.98,-0.03,-0.01,-0.0,32.17,20.902704,-58.06400556285556,-491.01266582004394,10.029546350658139,0.03162277660168379,-1.0503162745911483,-0.872685941825108
22861191,1782.0,1,203029.0,236836,0.54,-0.85,9.97,-0.03,-0.01,-0.0,32.17,20.942705,-25.81682661388085,-348.38494566396224,10.02072851643033,0.03162277660168379,-0.4635350280037729,-0.617918000870103
22901191,1795.0,1,203162.0,237087,0.55,-0.86,9.97,-0.03,-0.01,-0.0,32.17,20.982705,-10.4086692871174,-244.5364130916721,10.022125523061463,0.03162277660168379,-0.18316266494780636,-0.4324191596512421
22941191,1802.0,1,203174.0,237144,0.55,-0.85,9.94,-0.03,-0.01,-0.0,32.17,21.022705,-7.070700614227428,-186.94132477601474,9.991426324604511,0.03162277660168379,-0.12242378846973664,-0.32954026596042113
22981190,1808.0,1,203154.0,237243,0.52,-0.86,9.95,-0.03,-0.01,-0.0,32.17,21.062704,2.869604231208103,-146.73671596494978,10.00062498046997,0.03162277660168379,0.058453567589610685,-0.2577250157938517
23021202,1813.0,1,203274.0,237391,0.53,-0.83,9.96,-0.03,-0.01,-0.0,32.17,21.102716,-0.8921894637302102,-89.23629761194617,10.008566330898748,0.03162277660168379,-0.009997381165105559,-0.15501522577677093
23061190,1818.0,1,203352.0,237758,0.54,-0.85,9.98,-0.03,-0.01,-0.0,32.17,21.142704,16.312964978765198,0.08476949969831911,10.030677943190081,0.03162277660168379,0.3030737866251164,0.004534014209921446
23101191,1857.0,1,203395.0,237942,0.55,-0.86,9.95,-0.03,-0.01,-0.0,32.17,21.182705,36.02426454685876,108.19399586505082,10.002229751410432,0.03162277660168379,0.6617476709585204,0.19764349509623538
23141190,1823.0,1,203523.0,238243,0.55,-0.84,9.96,-0.03,-0.01,-0.0,32.17,21.222704,24.746286586933582,205.54579422699854,10.010479508994562,0.03162277660168379,0.45652953461297663,0.37153758237322865
23181191,1834.0,1,203479.0,238474,0.55,-0.84,9.96,-0.03,-0.01,-0.0,32.17,21.262705,8.467969612993267,266.35593456291656,10.010479508994562,0.03162277660168379,0.16032343418393963,0.48015934415707306
23221190,1805.0,1,203595.0,238776,0.55,-0.85,9.97,-0.03,-0.01,-0.0,32.17,21.302704,5.194220527369227,287.3457556690137,10.021272374304573,0.03162277660168379,0.10075312037396737,0.5176522908182293
23261191,1826.0,1,203565.0,238921,0.52,-0.84,9.97,-0.03,-0.01,-0.0,32.17,21.342705,2.5090068798408898,294.98448546500674,10.018827276682636,0.03162277660168379,0.05189200871073435,0.5312969277759476
23301191,1813.0,1,203651.0,238921,0.55,-0.83,9.96,-0.03,-0.01,-0.0,32.17,21.382705,4.923283984116975,332.8241607183513,10.00964534836275,0.03162277660168379,0.09582306175249267,0.5988878290407996
23341191,1843.0,1,203609.0,239005,0.54,-0.85,9.96,-0.03,-0.01,0.0,32.17,21.422705,27.08049714793682,428.7493969209998,10.01077919045266,0.03162277660168379,0.4990036680852457,0.7702337279041291
23381191,1841.0,1,203726.0,239384,0.53,-0.84,9.97,-0.03,-0.01,0.0,32.17,21.462705,22.084695988348344,559.5466330887906,10.019351276405075,0.03162277660168379,0.40809827643022817,1.0038695351974611
23421190,1807.0,1,203759.0,239581,0.55,-0.84,9.97,-0.03,-0.01,-0.0,32.17,21.502704,-2.106849150482178,644.2482983723137,10.020429132527209,0.03162277660168379,-0.032099764951902254,1.1551673953618693
23461190,1829.0,1,203948.0,239609,0.53,-0.81,9.97,-0.03,-0.01,-0.0,32.17,21.542704,3.8164266385279046,586.2865991138683,10.016880752010579,0.03162277660168379,0.07568228807220154,1.0516336449929533
23501191,1821.0,1,203715.0,238288,0.53,-0.85,9.94,-0.03,-0.01,-0.0,32.17,21.582705,12.025004485735836,344.35379190938687,9.990345339376411,0.03162277660168379,0.22504851789080488,0.6194825661318522
23541877,1827.0,1,203031.0,236546,0.55,-0.84,9.96,-0.03,-0.01,0.0,32.35,21.623391,3.242036276957961,-23.457936369553448,10.010479508994562,0.03162277660168379,0.06523047481675083,-0.037519008107583705
23582191,1797.0,1,202757.0,235864,0.54,-0.83,9.95,-0.03,-0.01,-0.0,32.35,21.663705,-17.762029303854018,-385.1283716252688,9.999149963871929,0.03162277660168379,-0.31696704405501086,-0.6835507331717249
23622190,1798.0,1,202530.0,235685,0.54,-0.85,9.95,-0.03,-0.01,-0.0,32.35,21.703704,-21.045902951331527,-614.5294167668796,10.000829965557857,0.03162277660168379,-0.3767215880277186,-1.0933170244627677
23662191,1808.0,1,202647.0,235833,0.56,-0.85,9.97,-0.03,-0.01,-0.0,32.35,21.743705,-11.566922098477585,-663.1033452617816,10.021826180891386,0.03162277660168379,-0.20423864897694174,-1.1800819235525057
23702190,1801.0,1,202657.0,236110,0.56,-0.84,9.95,-0.03,-0.01,-0.0,32.35,21.783704,-17.437922709367076,-572.306654613658,10.001084941145134,0.03162277660168379,-0.31106948409042723,-1.0178968595506632
23742191,1808.0,1,202765.0,236586,0.55,-0.85,9.96,-0.03,-0.01,-0.0,32.35,21.823705,-9.596395792007362,-429.22786568672433,10.011323588816817,0.03162277660168379,-0.1683822447819144,-0.7623231996102233
23782190,1828.0,1,202910.0,236859,0.54,-0.82,9.96,-0.03,-0.01,-0.0,32.35,21.863704,3.52347174521726,-308.14012587876795,10.008276574915383,0.03162277660168379,0.07035157564731957,-0.546030924083354
23822190,1818.0,1,202957.0,236853,0.52,-0.81,9.96,-0.03,-0.01,-0.0,32.35,21.903704,7.743964135795205,-237.9948477070731,10.006402950111495,0.03162277660168379,0.14714917056483093,-0.42073432628341545
23862190,1846.0,1,202997.0,237118,0.55,-0.84,9.94,-0.03,-0.01,-0.0,32.35,21.943704,13.697432816036503,-205.9122091709728,9.990580563711,0.03162277660168379,0.25548062427861246,-0.36342689858772403
23902191,1819.0,1,203136.0,237478,0.54,-0.84,9.98,-0.03,-0.01,0.0,32.35,21.983705,14.528729000165075,-181.26773705744768,10.02983549217035,0.03162277660168379,0.2706071881240307,-0.3194058526829381
23942191,1813.0,1,203088.0,237738,0.55,-0.84,9.96,-0.03,-0.01,-0.0,32.35,22.023705,-21.975332146163478,-139.6433121479732,10.010479508994562,0.03162277660168379,-0.3936338153708032,-0.2450544642149871
23982191,1741.0,1,203202.0,237937,0.56,-0.84,9.96,-0.03,-0.01,0.0,32.35,22.063705,-64.25101549769782,-74.8949699081018,10.011033912638595,0.03162277660168379,-1.162897328827232,-0.12939811203709228
24022191,1811.0,1,203250.0,238075,0.53,-0.85,9.95,-0.03,-0.01,0.0,32.35,22.103705,-20.02897476895351,2.4444369630508374,10.000294995648877,0.03162277660168379,-0.35821719769051114,0.008748956581004467
24062191,1835.0,1,203408.0,238463,0.54,-0.84,9.96,-0.03,-0.01,-0.0,32.35,22.143705,24.87288896755851,76.94896297385208,10.009935064724447,0.03162277660168379,0.45883323698773537,0.14183223564364794
24100191,1845.0,1,203462.0,238643,0.57,-0.84,9.96,-0.03,-0.01,-0.0,32.35,22.181705,18.913506122014837,143.03635628747313,10.01159827400201,0.03162277660168379,0.3503941669986157,0.25988046006432597
24140191,1853.0,1,203524.0,238933,0.53,-0.84,9.95,-0.03,-0.01,-0.0,32.35,22.221705,40.43736965718383,211.8851151148695,9.999449984874168,0.03162277660168379,0.7420501160826386,0.382861157677444
24180190,1856.0,1,203750.0,239238,0.53,-0.83,9.97,-0.03,-0.01,-0.0,32.35,22.261704,30.83857877877264,301.51942637270946,10.018517854453323,0.03162277660168379,0.5673870707887269,0.5429699282101977
24220207,1806.0,1,203771.0,239413,0.54,-0.84,9.95,-0.03,-0.01,-0.0,32.35,22.301721,-5.029796719528144,412.02609963030875,9.99998499998875,0.03162277660168379,-0.0852867684100408,0.7403618347541489
24260190,1819.0,1,203701.0,239558,0.55,-0.85,9.96,-0.03,-0.01,-0.0,32.35,22.341704,-7.189068588803801,503.9114582335354,10.011323588816817,0.03162277660168379,-0.12457765463545145,0.9044915255999302
24300191,1809.0,1,203906.0,239809,0.55,-0.85,9.94,-0.03,-0.01,-0.0,32.35,22.381705,-0.9301820981277813,505.48699205225273,9.991426324604511,0.03162277660168379,-0.010688708781956024,0.9073058137793971
24340190,1835.0,1,204043.0,239516,0.52,-0.84,9.97,-0.03,-0.01,-0.0,32.35,22.421704,10.210228160634218,358.6565360215802,10.018827276682636,0.03162277660168379,0.19202619627918863,0.6450307601538994
24380191,1808.0,1,203525.0,237532,0.52,-0.87,9.95,-0.03,-0.01,0.0,32.35,22.461705,-3.825754966142407,74.23063009908685,10.001489889011536,0.03162277660168379,-0.06337759235117209,0.13697662925397583
24420191,1802.0,1,203035.0,236353,0.54,-0.84,9.95,-0.03,-0.01,-0.0,32.35,22.501705,-19.149249020575454,-254.62514170149103,9.99998499998875,0.03162277660168379,-0.3422093921052508,-0.4504400928328472
24460191,1809.0,1,202927.0,236143,0.55,-0.85,9.96,-0.03,-0.01,-0.0,32.35,22.541705,-5.466675529742973,-502.88279100239856,10.011323588816817,0.03162277660168379,-0.09323637210316069,-0.8938888843406109
24500190,1806.0,1,202957.0,236279,0.56,-0.84,9.99,-0.03,-0.01,-0.0,32.35,22.581704,-12.248928996469514,-591.14876962259,10.040881435411933,0.03162277660168379,-0.2166486913691187,-1.0515534786062704
24540191,1809.0,1,202988.0,236443,0.54,-0.85,9.97,-0.03,-0.01,-0.0,32.35,22.621705,-6.802654743152784,-528.111036685628,10.02072851643033,0.03162277660168379,-0.11754632955710892,-0.9389526924109476
24580877,1824.0,1,203147.0,236972,0.53,-0.83,9.96,-0.03,-0.01,0.0,32.49,22.662391,7.4885986929400055,-389.80216276128124,10.008566330898748,0.03162277660168379,0.14250244927702424,-0.6918992655809408
24621191,1811.0,1,203278.0,237472,0.54,-0.84,9.97,-0.03,-0.01,-0.0,32.49,22.702705,-5.880097641899893,-260.5708317529384,10.019885228883613,0.03162277660168379,-0.1007591492962316,-0.46106054733009527
24661191,1821.0,1,203313.0,237648,0.53,-0.85,9.95,-0.03,-0.01,-0.0,32.49,22.742705,6.4194393844734,-183.1660650167136,10.000294995648877,0.03162277660168379,0.12304764261578985,-0.32279673003069514
24701191,1823.0,1,203359.0,237785,0.56,-0.85,9.93,-0.03,-0.01,-0.0,32.49,22.782705,4.631124086038209,-147.70802181187477,9.982033860892278,0.03162277660168379,0.09050681534629502,-0.25946000525023394
24741190,1782.0,1,203425.0,238058,0.54,-0.86,9.96,-0.03,-0.01,0.0,32.49,22.822704,-30.954829326053463,-115.95023007937252,10.01163323339404,0.03162277660168379,-0.5570279701674414,-0.2027328332803433
24781191,1808.0,1,203532.0,238390,0.52,-0.84,9.94,-0.03,-0.01,-0.0,32.49,22.862705,-11.160054939720588,-55.95568766854824,9.9889739212794,0.03162277660168379,-0.19683514806950858,-0.09556792857726777
24821190,1835.0,1,203576.0,238701,0.54,-0.85,9.95,-0.03,-0.01,-0.0,32.49,22.902704,22.50506168867287,36.64379283898028,10.000829965557857,0.03162277660168379,0.4157474016467099,0.06983735839352179
24861191,1831.0,1,203579.0,238914,0.54,-0.85,9.94,-0.03,-0.01,0.0,32.49,22.942705,11.676213343158013,140.49525245214926,9.990880842047911,0.03162277660168379,0.21870178902610965,0.2553414280222386
24901191,1811.0,1,203778.0,239248,0.53,-0.85,9.97,-0.03,-0.01,-0.0,32.49,22.982705,-1.3423872767338516,229.39260461747085,10.020194608888593,0.03162277660168379,-0.018189342215192576,0.4141338096344971
24941190,1819.0,1,203906.0,239515,0.54,-0.85,9.98,-0.03,-0.01,-0.0,32.49,23.022704,-0.8325095934415006,298.01029306467746,10.030677943190081,0.03162277660168379,-0.008911424817122588,0.5367017591162405
24981191,1825.0,1,203913.0,239660,0.52,-0.84,9.97,-0.03,-0.01,0.0,32.49,23.062705,12.815746034721471,371.57323673081424,10.018827276682636,0.03162277660168379,0.23943713503391703,0.6681031421566574
25021202,1835.0,1,203908.0,239770,0.55,-0.84,9.95,-0.03,-0.01,-0.0,32.49,23.102716,14.939347436214884,483.98333615845365,10.000529985955744,0.03162277660168379,0.27807894861998955,0.868895032697901
25061190,1809.0,1,204069.0,239990,0.55,-0.84,9.97,-0.03,-0.01,-0.0,32.49,23.142704,-4.214875474395356,634.0943743003738,10.020429132527209,0.03162277660168379,-0.0704581688340535,1.1370300071627826
25101191,1813.0,1,204181.0,240375,0.55,-0.85,9.95,-0.03,-0.01,-0.0,32.49,23.182705,-6.018849656759791,757.8852804464907,10.001374905481745,0.03162277660168379,-0.10328393077788704,1.3581507979409535
25141190,1815.0,1,204180.0,240430,0.53,-0.87,9.97,-0.03,-0.01,-0.0,32.49,23.222704,-0.4195472674900392,752.566826668933,10.021910995413998,0.03162277660168379,-0.0013970140589336143,1.3486507406134582
25181190,1818.0,1,204172.0,239188,0.57,-0.83,9.97,-0.03,-0.01,-0.0,32.49,23.262704,-0.0034892515618428796,547.5994989380665,10.020713547447608,0.03162277660168379,0.006173726985587408,0.9825290358572043
25221191,1818.0,1,203566.0,237033,0.54,-0.82,9.98,-0.03,-0.01,-0.0,32.49,23.302705,1.4780796047310565,170.08444886608098,10.028180293552765,0.03162277660168379,0.03313288585576884,0.3081949591355533
25261190,1825.0,1,202984.0,235797,0.55,-0.84,9.98,-0.03,-0.01,-0.0,32.49,23.342704,5.718514605622782,-253.80947575442582,10.030378856254634,0.03162277660168379,0.1102933636709948,-0.44898311424822485
25301191,1823.0,1,202691.0,235576,0.51,-0.85,9.96,-0.03,-0.01,-0.0,32.49,23.382705,7.65125240946017,-570.0262136493648,10.00920576269666,0.03162277660168379,0.14546215470405685,-1.0138234350557147
25341191,1813.0,1,202719.0,235484,0.55,-0.82,9.97,-0.03,-0.01,0.0,32.49,23.422705,-8.930436974951549,-686.9651755181751,10.018772379887668,0.03162277660168379,-0.15626421903255538,-1.2227049799624836
25381190,1807.0,1,202705.0,235781,0.53,-0.82,9.96,-0.03,-0.01,-0.0,32.49,23.462704,-8.084229600292336,-617.5423822064273,10.007742003069424,0.03162277660168379,-0.14086632581034064,-1.0986989165687493
25421190,1818.0,1,202882.0,236353,0.54,-0.83,9.97,-0.03,-0.01,-0.0,32.49,23.502704,-3.0668517094106713,-450.83729197620164,10.019051851348012,0.03162277660168379,-0.049568316205531905,-0.8009229124498058
25461191,1810.0,1,202888.0,236490,0.56,-0.83,9.95,-0.03,-0.01,-0.0,32.49,23.542705,-10.65215319166811,-286.9476634806508,10.000249996875077,0.03162277660168379,-0.18759318549852788,-0.5081760105852892
25501191,1823.0,1,202996.0,236671,0.55,-0.84,9.96,-0.03,-0.01,-0.0,32.49,23.582705,9.390049962301172,-184.82507102435082,10.010479508994562,0.03162277660168379,0.17710193929524698,-0.3257601199252766
25541190,1839.0,1,203024.0,236803,0.54,-0.84,9.94,-0.03,-0.01,-0.0,32.49,23.622704,7.539345091455552,-148.06385875511535,9.990035034973602,0.03162277660168379,0.14342584896503693,-0.2600956169338948
25581877,1792.0,1,203121.0,236861,0.54,-0.83,9.97,-0.03,-0.01,-0.0,32.27,23.663391,-12.294414501600992,-142.16803173713052,10.019051851348012,0.03162277660168379,-0.2174763619521777,-0.2495642299920358
25620190,1831.0,1,202939.0,236654,0.54,-0.84,9.96,-0.03,-0.01,-0.0,32.27,23.701704,-8.40365533121836,-124.20456010534555,10.009935064724447,0.03162277660168379,-0.1466787111008938,-0.21747708259161966
25660194,1798.0,1,203069.0,236795,0.53,-0.85,9.98,-0.03,-0.01,-0.0,32.27,23.741708,-4.220559180042784,-68.77638810183875,10.030144565259267,0.03162277660168379,-0.0705615915827631,-0.11846883064185908
25700190,1837.0,1,203057.0,237112,0.54,-0.85,9.95,-0.03,-0.01,-0.0,32.27,23.781704,-0.013745784427287345,20.773274645639614,10.000829965557857,0.03162277660168379,0.0059870954309335,0.04148873697840244
25740191,1814.0,1,203170.0,237698,0.53,-0.85,9.95,-0.03,-0.01,-0.0,32.27,23.821705,3.308269819146955,121.68847657742477,10.000294995648877,0.03162277660168379,0.06643568413174397,0.22174793329090242
25780190,1840.0,1,203379.0,238227,0.54,-0.83,9.99,-0.03,-0.01,-0.0,32.27,23.861704,13.803288939858543,215.35906093868732,10.0389541287925,0.03162277660168379,0.2574068203155895,0.38906647333105443
25820191,1833.0,1,203384.0,238389,0.54,-0.84,9.96,-0.03,-0.01,-0.0,32.27,23.901705,10.248993779363547,304.266883927373,10.009935064724447,0.03162277660168379,0.19273158939648175,0.5478775583910414
25860221,1823.0,1,203377.0,238400,0.56,-0.85,9.96,-0.03,-0.01,-0.0,32.27,23.941735,5.964581534026696,401.81079555658164,10.011877945720274,0.03162277660168379,0.11477088585119052,0.7221148068815536
25900190,1845.0,1,203380.0,238309,0.55,-0.85,9.98,-0.03,-0.01,-0.0,32.27,23.981704,17.19956396293663,499.37049771877787,10.031221261641077,0.03162277660168379,0.3192066600767259,0.8963802611203694
25940190,1815.0,1,203516.0,238605,0.52,-0.81,9.96,-0.03,-0.01,-0.0,32.27,24.021704,-2.4790866022900673,545.1748613911539,10.006402950111495,0.03162277660168379,-0.03887313127780489,0.9781980410497914
25980191,1811.0,1,203621.0,238628,0.55,-0.83,9.95,-0.03,-0.01,-0.0,32.27,24.061705,-11.72486421841112,468.25370092148154,9.999694995348607,0.03162277660168379,-0.20711262050077328,0.8407980626495033
