timestamp_us,ecg,leads,ir,red,accX,accY,accZ,gyroX,gyroY,gyroZ,temp,time_sec,ecg_filtered,ppg_filtered,accel_magnitude,gyro_magnitude,ecg_norm,ppg_norm
1949963,1596.875,1,214895.875,251518,1.38,0.12,9.885000000000002,-0.03,-0.01,-0.0,32.76,0.030471,-8.102782353440093,-46.81177366628387,9.981584293086947,0.03162277660168379,-0.06310348081381016,-0.15173689177349886
1990182,1596.875,1,215815.0,253346,1.38,0.14,9.885000000000002,-0.03,-0.01,-0.0,32.76,0.07069,-50.2642229123353,559.0175024044256,9.981844769380059,0.03162277660168379,-0.3958811714748887,1.584112190696065
2030174,1596.875,1,216460.0,254403,1.38,0.12,9.89,-0.03,-0.01,-0.0,32.76,0.110682,-92.45884540755765,1026.840248295517,9.986535935948963,0.03162277660168379,-0.7289207651448834,2.9245388030915054
2070177,1596.875,1,216811.0,255023,1.38,0.13,9.92,-0.03,-0.01,-0.0,32.76,0.150685,-134.71908063297826,1292.8943907801306,10.016371598538067,0.03162277660168379,-1.0624782361109075,3.6868490072376
2110174,1596.875,1,217099.0,255633,1.38,0.11,9.9,-0.03,-0.01,-0.0,32.76,0.190682,-171.8552970989468,1388.7640432064409,9.99632432447047,0.03162277660168379,-1.3555921380937377,3.961539014429434
2150177,1596.875,1,217329.0,256144,1.38,0.13,9.9,-0.03,-0.01,0.0,32.76,0.230685,-217.6599109600667,1400.3515215941527,9.996564409836012,0.03162277660168379,-1.717125174447971,3.9947399747030965
2190178,1659.0,1,217571.0,256774,1.38,0.1,9.9,-0.03,-0.01,-0.0,32.76,0.270686,-184.58325555082797,1405.270392427361,9.996219285309822,0.03162277660168379,-1.4560531414252178,4.008833742963999
2230177,1829.0,1,217840.0,257253,1.38,0.12,9.9,-0.03,-0.01,0.0,32.76,0.310685,-61.199881138048994,1434.7199505608257,9.99643936609431,0.03162277660168379,-0.48219565793386826,4.0932139313838505
2270174,1947.0,1,217987.0,257622,1.39,0.13,9.925,-0.03,-0.01,0.0,32.76,0.350682,30.487475398206453,1474.2218942669092,10.022705473074623,0.03162277660168379,0.24148708076033243,4.2063966636260055
2310177,2059.0,1,218136.0,257907,1.38,0.12,9.9,-0.03,-0.01,0.0,32.76,0.390685,104.47380349711568,1485.3554703286654,9.99643936609431,0.03162277660168379,0.8254566766486624,4.238297082695798
2350174,2159.0,1,218139.0,258087,1.38,0.13,9.92,-0.03,-0.01,-0.0,32.76,0.430682,173.20872846079132,1426.1963655873546,10.016371598538067,0.03162277660168379,1.3679772664094092,4.068791775274933
2390201,2221.0,1,218199.0,258091,1.38,0.14,9.92,-0.03,-0.01,-0.0,32.76,0.470709,211.58708467725017,1265.368036227726,10.016506376975958,0.03162277660168379,1.670895302031105,3.6079792675587488
2430174,2287.875,1,218185.0,257899,1.38,0.13,9.925,-0.03,-0.01,-0.0,32.76,0.510682,242.18471874812056,995.9531276475202,10.021323515384582,0.03162277660168379,1.9124005701343967,2.8360396463906423
2470177,2287.875,1,217860.0,256566,1.39,0.11,9.925,-0.03,-0.01,-0.0,32.76,0.550685,229.58735548582706,647.1589351304975,10.022466013910948,0.03162277660168379,1.8129703467057456,1.836658957860297
2510174,2287.875,1,217445.0,255692,1.38,0.13,9.91,-0.03,-0.01,-0.0,32.76,0.590682,195.0963057627229,280.18028842520397,10.006467908308107,0.03162277660168379,1.5407345852331826,0.7851753595421528
2550177,2287.875,1,217279.0,255596,1.38,0.11,9.92,-0.03,-0.01,-0.0,32.76,0.630685,186.716365108806,-37.07421174893442,10.016131987948242,0.03162277660168379,1.4745922224077976,-0.12383639474015842
2590174,2287.875,1,217222.0,255698,1.38,0.11,9.885000000000002,-0.03,-0.01,-0.0,32.76,0.670682,160.13379968668238,-260.13513810905647,9.981469080250664,0.03162277660168379,1.2647776473895587,-0.7629605170809162
2630177,2262.0,1,217167.0,255744,1.38,0.11,9.925,-0.03,-0.01,-0.0,32.76,0.710685,126.07388052317586,-380.6068792371456,10.02108402319829,0.03162277660168379,0.9959447732494603,-1.1081415269142818
2670174,2253.0,1,217077.0,255984,1.39,0.12,9.885000000000002,-0.03,-0.01,-0.0,32.76,0.750682,100.37167439764616,-417.2577230287181,9.982971751938399,0.03162277660168379,0.7930788207115965,-1.2131551604249724
2710177,2174.0,1,217154.0,256133,1.4,0.12,9.91,-0.03,-0.01,-0.0,32.76,0.790685,13.234116090925623,-400.4675239769781,10.009120840513416,0.03162277660168379,0.1053073632195523,-1.1650471326857474
2750174,2096.0,1,217173.0,256157,1.38,0.11,9.91,-0.03,-0.01,-0.0,32.76,0.830682,-73.54707059070066,-362.74581594035186,10.006228060563082,0.03162277660168379,-0.5796512746713605,-1.056965211143019
2790177,2145.0,1,217229.0,256149,1.38,0.11,9.92,-0.03,-0.01,-0.0,32.76,0.870685,-29.792611701312914,-333.12813120791935,10.016131987948242,0.03162277660168379,-0.234299987041707,-0.9721032988876177
2830175,2240.0,1,217296.0,256255,1.38,0.13,9.91,-0.03,-0.01,-0.0,32.76,0.910683,60.29361964401724,-327.76164184810835,10.006467908308107,0.03162277660168379,0.4767451677267001,-0.9567269940452229
2870177,2261.0,1,217264.0,256312,1.38,0.11,9.9,-0.03,-0.01,-0.0,32.76,0.950685,81.82628175181205,-339.07205875876383,9.99632432447047,0.03162277660168379,0.6467011624704678,-0.9891341054084216
2910174,2249.0,1,217151.0,256459,1.38,0.12,9.91,-0.03,-0.01,-0.0,32.76,0.990682,66.2093420462481,-336.7089663878204,10.006342988324956,0.03162277660168379,0.5234376054970944,-0.982363267672587
2950177,2201.0,1,217170.0,256636,1.4,0.11,9.91,-0.03,-0.01,0.0,32.76,1.030685,24.693515219126578,-288.3856836918728,10.00900594464805,0.03162277660168379,0.19575570482494212,-0.8439052412237501
2990861,2160.0,1,217293.0,256755,1.38,0.12,9.9,-0.03,-0.01,-0.0,32.69,1.071369,-18.670103651503045,-189.86974943876533,9.99643936609431,0.03162277660168379,-0.1465107062650073,-0.56163298922725
3029177,2176.0,1,217326.0,256870,1.38,0.12,9.91,-0.03,-0.01,-0.0,32.69,1.109685,7.947592122672027,-80.42445934133009,10.006342988324956,0.03162277660168379,0.06358115048916897,-0.24804545904312833
3069174,2192.0,1,217239.0,256897,1.38,0.11,9.885000000000002,-0.03,-0.01,-0.0,32.69,1.149682,23.87056809554993,-27.45997552351424,9.981469080250664,0.03162277660168379,0.1892602331406323,-0.09628925598387059
3109177,2096.0,1,217252.0,257032,1.38,0.14,9.9,-0.03,-0.01,-0.0,32.69,1.189685,-59.524893140873,-86.28334099176683,9.996699455320242,0.03162277660168379,-0.46897507936263505,-0.2648325882541329
3149174,2015.0,1,217078.0,256765,1.38,0.1,9.9,-0.03,-0.01,-0.0,32.69,1.229682,-137.95736088805793,-260.94907080558,9.996219285309822,0.03162277660168379,-1.0880377855644763,-0.7652926333721854
3189177,1895.0,1,216626.0,255542,1.39,0.12,9.9,-0.03,-0.01,-0.0,32.69,1.269685,-243.76156146655003,-495.7538601537144,9.99782476341729,0.03162277660168379,-1.923143917233967,-1.43806579612348
3229174,1679.0,1,216114.0,254570,1.38,0.12,9.91,-0.03,-0.01,-0.0,32.69,1.309682,-456.39173215938285,-706.5232368921803,10.006342988324956,0.03162277660168379,-3.60142094548658,-2.04197162186546
3269177,1632.0,1,216287.0,254222,1.38,0.11,9.89,-0.03,-0.01,-0.0,32.69,1.349685,-486.50412429953855,-827.6748478799148,9.986420780239536,0.03162277660168379,-3.839096228490345,-2.389100625166092
3309174,1889.0,1,216232.0,254272,1.38,0.13,9.885000000000002,-0.03,-0.01,-0.0,32.69,1.389682,-226.7325744082642,-837.8688677137127,9.981709522922415,0.03162277660168379,-1.7887351562326033,-2.418308985795249
3349177,2016.0,1,216142.0,254307,1.38,0.12,9.925,-0.03,-0.01,0.0,32.69,1.429685,-80.99198809758236,-752.2277046426045,10.021198780585086,0.03162277660168379,-0.6384135565635437,-2.1729261028438174
3389177,1895.0,1,216010.0,254595,1.38,0.13,9.92,-0.03,-0.01,0.0,32.69,1.469685,-199.09136164984128,-602.6622546912296,10.016371598538067,0.03162277660168379,-1.5705647420606696,-1.7443844999171545
3429177,1792.0,1,216240.0,254747,1.38,0.15,9.92,-0.03,-0.01,-0.0,32.69,1.509685,-282.68341138720825,-427.610626215737,10.016651136981862,0.03162277660168379,-2.230351715666771,-1.2428187607294012
3469174,1919.0,1,216481.0,254765,1.38,0.13,9.925,-0.03,-0.01,0.0,32.69,1.549682,-153.5397502568499,-266.12258612898444,10.021323515384582,0.03162277660168379,-1.2110286388272997,-0.780116020392237
3509177,2113.0,1,216461.0,254727,1.38,0.13,9.925,-0.03,-0.01,-0.0,32.69,1.589685,62.249226576929175,-142.55036683389017,10.021323515384582,0.03162277660168379,0.4921806545209939,-0.42605138212757615
3549174,2221.0,1,216483.0,254859,1.38,0.14,9.925,-0.03,-0.01,-0.0,32.69,1.629682,168.46464421945572,-48.674476606739056,10.02145822722422,0.03162277660168379,1.3305324975114405,-0.15707399137864425
3589177,2155.0,1,216430.0,255038,1.38,0.12,9.925,-0.03,-0.01,-0.0,32.69,1.669685,129.08945569021554,54.40008417041748,10.021198780585086,0.03162277660168379,1.0197465249638153,0.1382598408049585
3629174,2112.0,1,216597.0,255269,1.39,0.13,9.91,-0.03,-0.01,-0.0,32.69,1.709682,78.76357144886265,206.99682141483257,10.007851917369681,0.03162277660168379,0.6225273759900065,0.5754868233825569
3669177,2139.0,1,216805.0,255505,1.38,0.14,9.9,-0.03,-0.01,-0.0,32.69,1.749685,136.253819377324,414.2467208395569,9.996699455320242,0.03162277660168379,1.0762944125892782,1.1693084856363438
3709174,2263.0,1,216913.0,255718,1.38,0.14,9.925,-0.03,-0.01,-0.0,32.69,1.789682,250.70132934019972,631.061842770864,10.02145822722422,0.03162277660168379,1.979621660484305,1.7905368503515202
3749177,2287.875,1,216975.0,255860,1.39,0.12,9.9,-0.03,-0.01,-0.0,32.69,1.829685,303.65362385217094,781.5650929942425,9.99782476341729,0.03162277660168379,2.3975709062716706,2.221765480475441
3789174,2287.875,1,217025.0,256016,1.39,0.1,9.885000000000002,-0.03,-0.01,0.0,32.69,1.869682,299.9465179695141,801.9050146720327,9.982751374245481,0.03162277660168379,2.3683109446025865,2.2800443319216597
3829212,2287.875,1,216956.0,255556,1.38,0.12,9.89,-0.03,-0.01,-0.0,32.69,1.90972,316.4209351098356,679.8596522046157,9.986535935948963,0.03162277660168379,2.498342518910045,1.9303545119896086
3869174,2287.875,1,216590.0,254293,1.38,0.12,9.9,-0.03,-0.01,-0.0,32.69,1.949682,326.85607351811603,463.9993122046062,9.99643936609431,0.03162277660168379,2.5807064328371663,1.3118618310798613
3909177,2244.0,1,216225.0,253532,1.38,0.12,9.92,-0.03,-0.01,-0.0,32.69,1.989685,281.87576778461806,232.90417916871667,10.016246802071123,0.03162277660168379,2.225679610489544,0.6497177411717486
3949174,2159.0,1,216069.0,253615,1.38,0.14,9.925,-0.03,-0.01,-0.0,32.69,2.029682,223.04007098443626,45.489552820247845,10.02145822722422,0.03162277660168379,1.7612930276295542,0.11272898866650398
3989177,2059.0,1,216061.0,253785,1.38,0.13,9.92,-0.03,-0.01,-0.0,32.69,2.069685,107.9760229752636,-87.86161450762498,10.016371598538067,0.03162277660168379,0.8530994823658505,-0.26935472797665866
4029897,1837.0,1,215869.0,253911,1.39,0.12,9.9,-0.03,-0.01,-0.0,32.59,2.110405,-81.093467905,-190.67924099001291,9.99782476341729,0.03162277660168379,-0.6392145305225335,-0.563952380550848
4068177,1707.0,1,215754.0,254175,1.38,0.14,9.925,-0.03,-0.01,-0.0,32.59,2.148685,-227.9587008318446,-280.2475114629441,10.02145822722422,0.03162277660168379,-1.7984128976543565,-0.820587386913064
4108174,1596.875,1,215626.0,254206,1.38,0.12,9.92,-0.03,-0.01,-0.0,32.59,2.188682,-310.5544415315389,-342.6377718182777,10.016246802071123,0.03162277660168379,-2.450336064513192,-0.9993507456190946
4148177,1596.875,1,215571.0,254184,1.38,0.12,9.91,-0.03,-0.01,-0.0,32.59,2.228685,-321.10244322938127,-345.4161667908439,10.006342988324956,0.03162277660168379,-2.533590801532764,-1.0073115269057753
4188174,1596.875,1,215675.0,254279,1.39,0.13,9.9,-0.03,-0.01,-0.0,32.59,2.268682,-300.52821421850615,-272.13100658198096,9.997949789831914,0.03162277660168379,-2.3711996610353907,-0.7973316148548726
4228177,1596.875,1,215884.0,254516,1.38,0.12,9.91,-0.03,-0.01,0.0,32.59,2.308685,-310.12650130256355,-143.23888002330537,10.006342988324956,0.03162277660168379,-2.4469583582666408,-0.42802414084908613
4268177,1616.0,1,215924.0,254778,1.38,0.15,9.92,-0.03,-0.01,-0.0,32.59,2.348685,-267.8364739477812,-3.8693323318740362,10.016651136981862,0.03162277660168379,-2.1131657398322794,-0.02869629216299367
4308177,1695.0,1,216028.0,255011,1.39,0.12,9.91,-0.03,-0.01,-0.0,32.59,2.388685,-206.82271213391985,109.02969649759868,10.00772701466222,0.03162277660168379,-1.6315878220521873,0.29478704439083725
4348174,1729.0,1,216169.0,255190,1.38,0.14,9.9,-0.03,-0.01,-0.0,32.59,2.428682,-142.4216562323186,189.94266025636367,9.996699455320242,0.03162277660168379,-1.1232741976841432,0.5266224796334094
4388177,1872.0,1,216168.0,255389,1.38,0.14,9.9,-0.03,-0.01,-0.0,32.59,2.468685,-23.396954536743372,258.03607904782905,9.996699455320242,0.03162277660168379,-0.18381945332957322,0.7217267824462453
4428174,1898.0,1,216157.0,255544,1.38,0.11,9.92,-0.03,-0.01,-0.0,32.59,2.508682,31.48525387441131,326.49292677435125,10.016131987948242,0.03162277660168379,0.24936248569672115,0.917872398065146
4468177,1889.0,1,216205.0,255719,1.38,0.13,9.9,-0.03,-0.01,-0.0,32.59,2.548685,4.286876962442153,376.4440338084147,9.996564409836012,0.03162277660168379,0.034687347975765975,1.0609945394641
4508174,1853.0,1,216282.0,255803,1.38,0.14,9.885000000000002,-0.03,-0.01,-0.0,32.59,2.588682,-14.691268438504009,363.86223172240256,9.981844769380059,0.03162277660168379,-0.11510600148853714,1.024944598549279
4548177,1904.0,1,216302.0,254721,1.38,0.13,9.91,-0.03,-0.01,0.0,32.59,2.628685,29.352771246612008,259.63393582177684,10.006467908308107,0.03162277660168379,0.23253092978101134,0.7263050329939316
4588177,2011.0,1,215917.0,253407,1.38,0.13,9.9,-0.03,-0.01,-0.0,32.59,2.668685,142.2168607425456,87.68249444238555,9.996564409836012,0.03162277660168379,1.123360336061769,0.23362208824812825
4628177,2096.0,1,215640.0,253114,1.38,0.11,9.9,-0.03,-0.01,0.0,32.59,2.708685,225.93962657595281,-79.0211064897737,9.99632432447047,0.03162277660168379,1.7841790438779892,-0.24402450981539425
4668174,2131.0,1,215645.0,253281,1.39,0.11,9.92,-0.03,-0.01,-0.0,32.59,2.748682,263.16916213736,-166.80460426432123,10.017514661831047,0.03162277660168379,2.0780295078156055,-0.4955457057803981
4708177,2154.0,1,215701.0,253358,1.38,0.13,9.9,-0.03,-0.01,-0.0,32.59,2.788685,284.3889997272398,-151.8904119274205,9.996564409836012,0.03162277660168379,2.245516397631412,-0.4528128962144865
4748174,2151.0,1,215765.0,253562,1.4,0.14,9.92,-0.03,-0.01,-0.0,32.59,2.828682,282.59989991606295,-68.5964973485651,10.0192814113588,0.03162277660168379,2.231395141440131,-0.21415545441048714
4788177,2142.0,1,215865.0,253711,1.38,0.12,9.885000000000002,-0.03,-0.01,0.0,32.59,2.868685,272.78070988754206,27.761598115203657,9.981584293086947,0.03162277660168379,2.1538928706795066,0.06193406157351012
4828177,2096.0,1,215918.0,253854,1.39,0.12,9.9,-0.03,-0.01,-0.0,32.59,2.908685,222.59750128362992,104.69819405492733,9.99782476341729,0.03162277660168379,1.757799851850013,0.2823762302591871
4868177,2023.0,1,215865.0,253930,1.39,0.13,9.91,-0.03,-0.01,0.0,32.59,2.948685,154.9619679734459,163.18488466387572,10.007851917369681,0.03162277660168379,1.2239566936649247,0.4499549066953766
4908177,2011.0,1,215873.0,254112,1.38,0.11,9.91,-0.03,-0.01,-0.0,32.59,2.988685,129.28220318387355,211.58595921920707,10.006228060563082,0.03162277660168379,1.0212678692293327,0.5886358258518929
4948177,1969.0,1,215931.0,254398,1.38,0.12,9.92,-0.03,-0.01,-0.0,32.59,3.028685,100.63297289771015,237.0217450865298,10.016246802071123,0.03162277660168379,0.7951412339088645,0.6615155748235012
4988174,1951.0,1,215986.0,254735,1.38,0.14,9.91,-0.03,-0.01,-0.0,32.59,3.068682,60.28382204432415,210.0663093172883,10.006602820138312,0.03162277660168379,0.47666783586714623,0.5842816571246412
5028177,1877.0,1,215973.0,254989,1.38,0.12,9.91,-0.03,-0.01,0.0,32.59,3.108685,4.381864726391914,120.93986521039731,10.006342988324956,0.03162277660168379,0.03543708062980339,0.3289125913869455
5068864,1770.0,1,215615.0,255168,1.38,0.13,9.91,-0.03,-0.01,-0.0,32.47,3.149372,-128.03835410006315,5.734002771182474,10.006467908308107,0.03162277660168379,-1.0097476671813161,-0.0011803877890644667
5109177,1622.0,1,215552.0,255328,1.38,0.12,9.91,-0.03,-0.01,-0.0,32.47,3.189685,-260.95483414100283,-74.89559895441926,10.006342988324956,0.03162277660168379,-2.058849374629765,-0.23220392148659508
5149174,1596.875,1,215303.0,255539,1.39,0.13,9.91,-0.03,-0.01,-0.0,32.47,3.229682,-304.7554370007586,-92.26657588960606,10.007851917369681,0.03162277660168379,-2.4045648738160788,-0.28197601993999605
5189177,1596.875,1,215684.0,255761,1.38,0.14,9.91,-0.03,-0.01,-0.0,32.47,3.269685,-303.0538252473114,-84.76547138598467,10.006602820138312,0.03162277660168379,-2.3911341555529564,-0.2604835205108338
5229174,1596.875,1,215624.0,255840,1.39,0.13,9.91,-0.03,-0.01,-0.0,32.47,3.309682,-305.9582770802611,-129.1408258891305,10.007851917369681,0.03162277660168379,-2.4140588175377666,-0.38762976688925554
5269177,1596.875,1,215353.0,254853,1.38,0.14,9.9,-0.03,-0.01,0.0,32.47,3.349685,-321.89689453143245,-269.6176495948992,9.996699455320242,0.03162277660168379,-2.5398613574277875,-0.7901302322339456
5309174,1618.0,1,214936.0,253562,1.38,0.13,9.885000000000002,-0.03,-0.01,-0.0,32.47,3.389682,-290.38768668641967,-471.7775991290033,9.981709522922415,0.03162277660168379,-2.291161092867898,-1.369367942875566
5349177,1680.0,1,214895.875,253280,1.39,0.14,9.92,-0.03,-0.01,-0.0,32.47,3.429685,-251.1001449973296,-644.4563221302928,10.017888999185407,0.03162277660168379,-1.981066911508436,-1.8641347273860258
5389174,1655.0,1,214895.875,253507,1.38,0.13,9.9,-0.03,-0.01,-0.0,32.47,3.469682,-269.3232295691316,-707.8880075976983,9.996564409836012,0.03162277660168379,-2.1249006116889286,-2.0458820238062843
5429177,1659.0,1,214895.875,253739,1.38,0.13,9.92,-0.03,-0.01,-0.0,32.47,3.509685,-275.21639029925296,-648.9680002550845,10.016371598538067,0.03162277660168379,-2.171414971551108,-1.8770617889240744
5469217,1666.0,1,214895.875,254105,1.38,0.13,9.925,-0.03,-0.01,-0.0,32.47,3.549725,-280.64091782331735,-523.3846737605206,10.021323515384582,0.03162277660168379,-2.214230437969149,-1.5172348365474428
5509177,1771.0,1,215204.0,254469,1.38,0.14,9.925,-0.03,-0.01,-0.0,32.47,3.589685,-165.37378495936306,-409.7595318015706,10.02145822722422,0.03162277660168379,-1.3044339562761726,-1.1916710082455946
5549174,2064.0,1,215234.0,254601,1.38,0.13,9.91,-0.03,-0.01,-0.0,32.47,3.629682,100.34824024510829,-353.31383152123163,10.006467908308107,0.03162277660168379,0.7928938563683299,-1.0299402683967953
5589177,2144.0,1,215016.0,254628,1.38,0.13,9.92,-0.03,-0.01,-0.0,32.47,3.669685,197.48761988472268,-339.2247978066562,10.016371598538067,0.03162277660168379,1.5596090824186546,-0.9895717401458197
5629174,2151.0,1,215089.0,254821,1.38,0.13,9.925,-0.03,-0.01,-0.0,32.47,3.709682,180.3444405777422,-310.4513687639843,10.021323515384582,0.03162277660168379,1.4242990089310887,-0.9071288269753515
5667216,2219.0,1,215363.0,255114,1.38,0.11,9.92,-0.03,-0.01,-0.0,32.47,3.747724,257.00759325156173,-209.89007891692495,10.016131987948242,0.03162277660168379,2.029396618676041,-0.6189961308383624
5707174,2287.875,1,215469.0,255417,1.38,0.13,9.9,-0.03,-0.01,-0.0,32.47,3.787682,313.84118808311575,-12.809382345561447,9.996564409836012,0.03162277660168379,2.477980732247599,-0.05431172249369967
5747177,2287.875,1,215750.0,255627,1.38,0.14,9.89,-0.03,-0.01,-0.0,32.47,3.827685,313.3936183184703,266.2105286416308,9.986796283092993,0.03162277660168379,2.474448091267736,0.7451485802819747
5787174,2287.875,1,215979.0,255899,1.38,0.12,9.91,-0.03,-0.01,0.0,32.47,3.867682,308.551544154281,582.1652648183946,10.006342988324956,0.03162277660168379,2.436229893857765,1.6504361927451534
5827176,2287.875,1,216407.0,256046,1.38,0.12,9.89,-0.03,-0.01,0.0,32.47,3.907684,306.15589390964016,870.0298964018858,9.986535935948963,0.03162277660168379,2.4173211719195384,2.4752387837498855
5867177,2287.875,1,216439.0,256278,1.38,0.13,9.92,-0.03,-0.01,-0.0,32.47,3.947685,303.0628974148192,1055.578323151513,10.016371598538067,0.03162277660168379,2.392908338365345,3.0068804178683055
5907177,2287.875,1,216490.0,256505,1.38,0.13,9.9,-0.03,-0.01,-0.0,32.47,3.987685,300.5390687113202,1075.1229566505401,9.996564409836012,0.03162277660168379,2.372987911633215,3.0628805741277243
5947174,2287.875,1,216404.0,256643,1.38,0.12,9.925,-0.03,-0.01,0.0,32.47,4.027682,301.20459883022886,906.5062689833289,10.021198780585086,0.03162277660168379,2.37824090045665,2.57975251456194
5987177,2287.875,1,216248.0,255720,1.38,0.13,9.92,-0.03,-0.01,-0.0,32.47,4.067685,294.12076618505864,596.0424256898639,10.016371598538067,0.03162277660168379,2.3223286394560723,1.690197653469298
6027177,2254.0,1,215663.0,254485,1.39,0.12,9.9,-0.03,-0.01,-0.0,32.47,4.107685,268.59372979906226,254.2068603921297,9.99782476341729,0.03162277660168379,2.1208452910375852,0.7107551342400348
6067177,2143.0,1,215303.0,254109,1.39,0.13,9.89,-0.03,-0.01,-0.0,32.47,4.147685,144.72458962037885,7.022940921162414,9.988047857314262,0.03162277660168379,1.143153687847359,0.00251273532891037
6107861,1957.0,1,215495.0,254385,1.38,0.13,9.925,-0.03,-0.01,-0.0,32.59,4.188369,-28.964446643626538,-72.30942536956739,10.021323515384582,0.03162277660168379,-0.227763330520256,-0.2247939014996307
6148177,1922.0,1,215636.0,254581,1.38,0.14,9.9,-0.03,-0.01,-0.0,32.59,4.228685,-74.87548752511427,-2.9513850514898907,9.996699455320242,0.03162277660168379,-0.590136388884944,-0.02606614864344498
6188174,1919.0,1,215610.0,254821,1.39,0.13,9.91,-0.03,-0.01,-0.0,32.59,4.268682,-72.12821606222153,121.35213443230744,10.007851917369681,0.03162277660168379,-0.5684523420183897,0.3300938435628466
6228177,1847.0,1,215629.0,255180,1.38,0.14,9.91,-0.03,-0.01,0.0,32.59,4.308685,-143.77736050169318,191.48181511987755,10.006602820138312,0.03162277660168379,-1.1339746891759277,0.5310325348472107
6268177,1810.0,1,215769.0,255294,1.39,0.13,9.92,-0.03,-0.01,-0.0,32.59,4.348685,-187.63465301641975,143.30186054552337,10.017754239349257,0.03162277660168379,-1.480137636367231,0.39298517852969145
6308177,1827.0,1,215710.0,255329,1.38,0.12,9.9,-0.03,-0.01,-0.0,32.59,4.388685,-158.8889635987407,-13.61715932854578,9.99643936609431,0.03162277660168379,-1.2532496549778562,-0.05662620115978137
6348174,1807.0,1,215335.0,255535,1.38,0.14,9.89,-0.03,-0.01,-0.0,32.59,4.428682,-193.27444235918765,-210.77221760845146,9.986796283092993,0.03162277660168379,-1.5246521512515023,-0.6215236739908303
6388177,1664.0,1,215058.0,255935,1.4,0.13,9.92,-0.03,-0.01,-0.0,32.59,4.468685,-322.93291720341244,-367.28011846706374,10.019146670250915,0.03162277660168379,-2.54803862147958,-1.0699570971272705
6428174,1596.875,1,215328.0,256213,1.38,0.13,9.9,-0.03,-0.01,-0.0,32.59,4.508682,-400.45495645912615,-435.4648153434683,9.996564409836012,0.03162277660168379,-3.159915370871415,-1.2653229339831933
6468177,1596.875,1,215481.0,256503,1.38,0.13,9.9,-0.03,-0.01,-0.0,32.59,4.548685,-396.48966732756753,-414.0735374687819,9.996564409836012,0.03162277660168379,-3.1286175844933557,-1.2040316898352432
6508174,1596.875,1,215390.0,256786,1.38,0.12,9.9,-0.03,-0.01,0.0,32.59,4.588682,-395.54571130210866,-330.0059744552828,9.99643936609431,0.03162277660168379,-3.121166996893081,-0.9631575560051662
6548177,1596.875,1,215460.0,257016,1.39,0.14,9.9,-0.03,-0.01,-0.0,32.59,4.628685,-403.17936411590614,-218.67507411607843,9.998084816603628,0.03162277660168379,-3.18141895510441,-0.6441672911937266
6588174,1615.0,1,215559.0,257167,1.38,0.11,9.89,-0.03,-0.01,-0.0,32.59,4.668682,-376.1964588770268,-121.37125643137298,9.986420780239536,0.03162277660168379,-2.968444522217616,-0.3653680496907988
6628177,1711.0,1,215838.0,257261,1.38,0.14,9.91,-0.03,-0.01,0.0,32.59,4.708685,-291.2272639276927,-83.33833027966239,10.006602820138312,0.03162277660168379,-2.297787825061552,-0.25639441211377606
6668177,1843.0,1,215980.0,256369,1.38,0.14,9.91,-0.03,-0.01,-0.0,32.59,4.748685,-153.16671451462898,-131.26821425214519,10.006602820138312,0.03162277660168379,-1.2080842903613853,-0.3937252549811259
6708177,1991.0,1,215709.0,255150,1.38,0.12,9.91,-0.03,-0.01,0.0,32.59,4.788685,-8.600120243899873,-243.3884404671819,10.006342988324956,0.03162277660168379,-0.06702893858924522,-0.714977131522886
6748177,2094.0,1,215473.0,254779,1.38,0.11,9.9,-0.03,-0.01,0.0,32.59,4.828685,89.62653950277819,-349.7060366323483,9.99632432447047,0.03162277660168379,0.7082681233360884,-1.0196030534503264
6788177,2183.0,1,215716.0,254983,1.38,0.13,9.9,-0.03,-0.01,-0.0,32.59,4.868685,186.3663615451181,-375.1115758381188,9.996564409836012,0.03162277660168379,1.471829665528734,-1.0923961383372214
6828174,2287.875,1,215820.0,255219,1.38,0.14,9.92,-0.03,-0.01,-0.0,32.59,4.908682,278.2404274366151,-291.3149540425282,10.016506376975958,0.03162277660168379,2.1969860898285134,-0.8522983173779256
6868177,2287.875,1,216071.0,255486,1.38,0.13,9.92,-0.03,-0.01,0.0,32.59,4.948685,289.89926376730534,-132.20100556213708,10.016371598538067,0.03162277660168379,2.289008577165086,-0.3963979302768573
6908177,2287.875,1,216354.0,255708,1.38,0.14,9.9,-0.03,-0.01,-0.0,32.59,4.988685,279.07667722025394,36.559167292920165,9.996699455320242,0.03162277660168379,2.2035865586010743,0.08714124945348198
6948177,2287.875,1,216455.0,255703,1.38,0.12,9.92,-0.03,-0.01,0.0,32.59,5.028685,285.2508928432815,161.36492371729256,10.016246802071123,0.03162277660168379,2.2523192676697916,0.44474027335882566
6988177,2287.875,1,216469.0,255777,1.38,0.14,9.89,-0.03,-0.01,-0.0,32.59,5.068685,282.8131868266915,221.01733610303904,9.986796283092993,0.03162277660168379,2.233078602076825,0.6156590278608919
7028177,2287.875,1,216575.0,256010,1.39,0.14,9.925,-0.03,-0.01,-0.0,32.59,5.108685,282.96944424399624,217.55212641251399,10.022840166340078,0.03162277660168379,2.234311932385041,0.6057303543889276
7068175,2287.875,1,216643.0,256294,1.4,0.13,9.92,-0.03,-0.01,-0.0,32.59,5.148683,284.6910337803463,161.75605407833982,10.019146670250915,0.03162277660168379,2.2479003340757413,0.44586095752706756
7108884,2287.875,1,216772.0,256531,1.38,0.15,9.9,-0.03,-0.01,-0.0,32.53,5.189392,286.54113898786045,73.8715672629871,9.996844502141665,0.03162277660168379,2.2625031021566033,0.19405040325478917
7147174,2262.0,1,216647.0,256755,1.38,0.16,9.9,-0.03,-0.01,-0.0,32.53,5.227682,258.6662107007137,-10.562915941542709,9.996999549864949,0.03162277660168379,2.0424879855055953,-0.047875046683797905
7187177,2132.0,1,216521.0,256873,1.38,0.12,9.925,-0.03,-0.01,-0.0,32.53,5.267685,137.76295536634632,-55.307690655221435,10.021198780585086,0.03162277660168379,1.0882059313292236,-0.17607977233819377
7227174,1925.0,1,216392.0,257019,1.38,0.15,9.9,-0.03,-0.01,-0.0,32.53,5.307682,-75.94295865736807,-57.80300766376487,9.996844502141665,0.03162277660168379,-0.5985618737244045,-0.18322946600741366
7267177,1779.0,1,216777.0,257207,1.38,0.13,9.925,-0.03,-0.01,0.0,32.53,5.347685,-209.72430236347668,-63.92304437984577,10.021323515384582,0.03162277660168379,-1.654489897575149,-0.200764868368935
7307194,1840.0,1,216996.0,256878,1.38,0.13,9.9,-0.03,-0.01,-0.0,32.53,5.387702,-152.153860501527,-129.66132861807583,9.996564409836012,0.03162277660168379,-1.200089895127521,-0.38912113454042396
7347177,1919.0,1,216727.0,255703,1.38,0.13,9.885000000000002,-0.03,-0.01,0.0,32.53,5.427685,-67.17757537300918,-255.32033256362885,9.981709522922415,0.03162277660168379,-0.5293772356176129,-0.7491649213274281
7387177,1931.0,1,216289.0,255268,1.4,0.13,9.925,-0.03,-0.01,-0.0,32.53,5.467685,-48.43871910569487,-361.9953688988711,10.02409721620855,0.03162277660168379,-0.38147258075754326,-1.0548149967842062
7427177,1920.0,1,216571.0,255999,1.41,0.11,9.925,-0.03,-0.01,-0.0,32.53,5.507685,-61.77361944438557,-345.70233914194216,10.025259348266259,0.03162277660168379,-0.4867241395534604,-1.0081314806992003
7467174,1904.0,1,216999.0,256710,1.38,0.12,9.91,-0.03,-0.01,-0.0,32.53,5.547682,-65.19389677470092,-163.6175892774217,10.006342988324956,0.03162277660168379,-0.5137201808726095,-0.4864141281902445
7507177,1955.0,1,217261.0,257366,1.38,0.12,9.9,-0.03,-0.01,0.0,32.53,5.587685,-16.43627320017108,126.44500510158952,9.99643936609431,0.03162277660168379,-0.1288792181310989,0.34468616392040163
7547174,1975.0,1,217531.0,258047,1.41,0.13,9.9,-0.03,-0.01,0.0,32.53,5.627682,12.324298024139148,403.77444447963273,10.00074997187711,0.03162277660168379,0.09812622445452372,1.1393028519887873
7587177,1986.0,1,217764.0,258286,1.44,0.14,9.91,-0.03,-0.01,0.0,32.53,5.667685,27.07830572878824,560.9855648635167,10.015053669351952,0.03162277660168379,0.21457871153428545,1.589751171096638
7627177,1994.0,1,217672.0,258295,1.42,0.12,9.91,-0.03,-0.01,-0.0,32.53,5.707685,39.781643235590074,559.1199715619899,10.011937874357791,0.03162277660168379,0.31484538324102074,1.5844057898999415
7667177,1952.0,1,217650.0,258315,1.42,0.11,9.89,-0.03,-0.01,0.0,32.53,5.747685,1.1693200342191197,433.3530897042297,9.992026821421168,0.03162277660168379,0.010080660411822545,1.2240529065038432
7707177,1914.0,1,217544.0,258468,1.43,0.14,9.9,-0.03,-0.01,0.0,32.53,5.787685,-27.123159275243694,262.1687289308918,10.003724306477062,0.03162277660168379,-0.2132301611083161,0.733567835348491
7747177,1840.0,1,217386.0,258560,1.41,0.12,9.885000000000002,-0.03,-0.01,0.0,32.53,5.827685,-105.8835474667085,128.84824517592872,9.985776134081918,0.03162277660168379,-0.8348811234684252,0.3515720346479644
7787177,1711.0,1,217453.0,258603,1.41,0.13,9.89,-0.03,-0.01,0.0,32.53,5.867685,-219.03861168679987,92.63588957702498,9.990850814620345,0.03162277660168379,-1.7280071755815452,0.24781477707845395
7827177,1722.0,1,217584.0,258677,1.42,0.11,9.9,-0.03,-0.01,-0.0,32.53,5.907685,-214.0965912083555,169.34791897766442,10.001924814754409,0.03162277660168379,-1.6890001079810169,0.4676135076930113
7867174,1741.0,1,217445.0,258698,1.39,0.12,9.89,-0.03,-0.01,0.0,32.53,5.947682,-187.3271309376425,318.5806835053847,9.987922706949629,0.03162277660168379,-1.4777103832694665,0.8952018854946895
7907177,1737.0,1,217715.0,258777,1.43,0.14,9.9,-0.03,-0.01,-0.0,32.53,5.987685,-181.8161373097026,447.9524071085425,10.003724306477062,0.03162277660168379,-1.4342124451429945,1.2658835223587304
7947174,1842.0,1,217802.0,258895,1.43,0.13,9.9,-0.03,-0.01,-0.0,32.53,6.027682,-92.07175398511447,451.45232619853755,10.003589355826238,0.03162277660168379,-0.7258654760483115,1.2759116467512805
7987177,1924.0,1,217874.0,258252,1.42,0.13,9.91,-0.03,-0.01,-0.0,32.53,6.067685,23.43639416732402,275.82434301063313,10.012062724533841,0.03162277660168379,0.18583332468435132,0.772694510316425
8027174,1984.0,1,217235.0,256860,1.41,0.11,9.91,-0.03,-0.01,0.0,32.53,6.107682,45.12914807891233,-30.333495754240854,10.010409582030098,0.03162277660168379,0.3570529143161008,-0.10452259440606718
8067176,1867.0,1,216853.0,255996,1.4,0.12,9.89,-0.03,-0.01,0.0,32.53,6.147684,-23.03286391151952,-335.47889350760113,9.98931929612824,0.03162277660168379,-0.1809457081290483,-0.9788388079529313
8107174,1837.0,1,216699.0,255893,1.4,0.12,9.91,-0.03,-0.01,-0.0,32.53,6.187682,-98.77081065002703,-510.02305639146,10.009120840513416,0.03162277660168379,-0.7787407235969149,-1.4789505340772429
8147864,1792.0,1,216832.0,256021,1.41,0.13,9.9,-0.03,-0.01,-0.0,32.45,6.228372,-99.41000430470477,-511.48821914200255,10.00074997187711,0.03162277660168379,-0.7837858403070932,-1.4831485837863843
8186174,1936.0,1,216979.0,256132,1.42,0.13,9.89,-0.03,-0.01,-0.0,32.45,6.266682,12.011564513767528,-400.15033003967613,9.992267010043317,0.03162277660168379,0.09565783784357706,-1.1641382944589096
8226177,2057.0,1,217026.0,256391,1.39,0.13,9.9,-0.03,-0.01,-0.0,32.45,6.306685,155.21657434518175,-278.4593146825115,9.997949789831914,0.03162277660168379,1.2259662862995857,-0.8154637656831342
8266174,2139.0,1,217008.0,256517,1.42,0.11,9.92,-0.03,-0.01,-0.0,32.45,6.346682,229.7633378609132,-212.75643385830085,10.021721409019511,0.03162277660168379,1.814359364908205,-0.6272089389536947
8306177,2130.0,1,216974.0,256552,1.39,0.12,9.9,-0.03,-0.01,-0.0,32.45,6.386685,216.61562456078744,-201.42128943937473,9.99782476341729,0.03162277660168379,1.7105852620433373,-0.5947309772301077
8346174,2045.0,1,216938.0,256623,1.42,0.13,9.9,-0.03,-0.01,-0.0,32.45,6.426682,145.77804534354522,-202.98314800946827,10.002164765689475,0.03162277660168379,1.151468549913784,-0.5992060841173616
8386177,1981.0,1,216987.0,256794,1.41,0.14,9.91,-0.03,-0.01,-0.0,32.45,6.466685,61.436282071725124,-184.98786004253506,10.010784185067621,0.03162277660168379,0.4857641328962284,-0.5476451818302118
8426174,1904.0,1,217048.0,257038,1.4,0.14,9.91,-0.03,-0.01,0.0,32.45,6.506682,6.3799973143913755,-145.8710670183125,10.009380600216979,0.03162277660168379,0.051208219837920836,-0.4355660005125966
8466177,1919.0,1,217139.0,257204,1.41,0.13,9.9,-0.03,-0.01,-0.0,32.45,6.546685,-0.6090046866174322,-97.72962564155343,10.00074997187711,0.03162277660168379,-0.003955548645570302,-0.2976289939278305
8506174,1879.0,1,217013.0,257376,1.4,0.13,9.89,-0.03,-0.01,0.0,32.45,6.586682,-22.63945770361812,-38.80989035739689,9.98944442899604,0.03162277660168379,-0.17784057681423274,-0.12880953855965585
8546177,1855.0,1,217126.0,257525,1.41,0.11,9.885000000000002,-0.03,-0.01,-0.0,32.45,6.626685,-63.18958820589916,48.66532516539754,9.985660969610375,0.03162277660168379,-0.4979002950229705,0.12182835333771029
8586175,1829.0,1,217140.0,257645,1.41,0.12,9.9,-0.03,-0.01,-0.0,32.45,6.666683,-76.77598522793298,170.9338111098519,10.00062498046997,0.03162277660168379,-0.6051369018718576,0.4721574766150943
8626177,1833.0,1,217353.0,257821,1.42,0.1,9.89,-0.03,-0.01,-0.0,32.45,6.706685,-86.26172994718497,296.2334695867405,9.991921737083413,0.03162277660168379,-0.6800073090502768,0.8311716507262034
8666174,1882.0,1,217449.0,257869,1.41,0.12,9.89,-0.03,-0.01,0.0,32.45,6.746682,-26.35111672892219,362.59861618790643,9.99072569936739,0.03162277660168379,-0.20713647616180483,1.0213240309194418
8706177,1999.0,1,217349.0,256921,1.41,0.13,9.9,-0.03,-0.01,-0.0,32.45,6.786685,77.21972485484024,320.18457139588213,10.00074997187711,0.03162277660168379,0.6103418885521168,0.8997974166667074
8746179,2034.0,1,217132.0,255825,1.4,0.14,9.9,-0.03,-0.01,-0.0,32.45,6.826687,122.4978844893775,173.77341712359066,9.999479986479297,0.03162277660168379,0.9677196536575842,0.4802936425090452
8786177,2141.0,1,216900.0,255574,1.42,0.12,9.89,-0.03,-0.01,-0.0,32.45,6.866685,216.98116715198086,-11.452313883260002,9.992141912523062,0.03162277660168379,1.7134704675231094,-0.050423389363923
8826174,2233.0,1,216873.0,255618,1.42,0.11,9.92,-0.03,-0.01,0.0,32.45,6.906682,317.9064994093142,-147.7790024070805,10.021721409019511,0.03162277660168379,2.5100679877354866,-0.4410327021475595
8866177,2175.0,1,216703.0,255685,1.42,0.13,9.92,-0.03,-0.01,-0.0,32.45,6.946685,247.4010018424169,-179.86776219522582,10.02196088597436,0.03162277660168379,1.9535723759110408,-0.5329748489469115
8906174,2013.0,1,216775.0,255907,1.4,0.13,9.9,-0.03,-0.01,-0.0,32.45,6.986682,95.69372290723287,-119.3072766041906,9.999344978547345,0.03162277660168379,0.7561560336016611,-0.35945424256598085
8946220,1952.0,1,216970.0,256162,1.4,0.12,9.92,-0.03,-0.01,0.0,32.45,7.026728,19.302236735421758,-36.574748454378614,10.019021908350137,0.03162277660168379,0.15320267106387123,-0.12240531021548004
8986174,1934.0,1,216896.0,256230,1.39,0.12,9.91,-0.03,-0.01,-0.0,32.45,7.066682,13.611388120247625,-16.011065321371454,10.00772701466222,0.03162277660168379,0.10828514844236548,-0.06348532746037275
9026180,1872.0,1,216769.0,256230,1.42,0.13,9.91,-0.03,-0.01,-0.0,32.45,7.106688,-62.99755676267508,-102.09337928273112,10.012062724533841,0.03162277660168379,-0.49638460250005595,-0.3101322156329457
9066174,1697.0,1,216565.0,256367,1.42,0.13,9.9,-0.03,-0.01,0.0,32.45,7.146682,-231.92707132190543,-268.62402979731615,10.002164765689475,0.03162277660168379,-1.829735005008001,-0.7872832684405405
9106177,1596.875,1,216645.0,256551,1.42,0.1,9.9,-0.03,-0.01,-0.0,32.45,7.186685,-334.7450389325972,-426.9323790337198,10.001819834410137,0.03162277660168379,-2.641270981160334,-1.2408754166305025
9146212,1596.875,1,216394.0,256742,1.4,0.13,9.9,-0.03,-0.01,-0.0,32.45,7.22672,-345.2034155327408,-469.0110786485291,9.999344978547345,0.03162277660168379,-2.723818312725013,-1.361441184913635
9186863,1596.875,1,216434.0,256902,1.41,0.11,9.9,-0.03,-0.01,-0.0,32.27,7.267371,-330.52479100447704,-326.22685510005516,10.000509986995663,0.03162277660168379,-2.6079608204798603,-0.9523294545508066
9227174,1596.875,1,217018.0,257182,1.4,0.13,9.91,-0.03,-0.01,-0.0,32.27,7.307682,-354.8046461356622,-14.320735877737176,10.009245725827697,0.03162277660168379,-2.799600242971952,-0.058642120092062294
9267177,1596.875,1,217309.0,257269,1.39,0.12,9.91,-0.03,-0.01,0.0,32.27,7.347685,-333.98442522135235,362.8540825783179,10.00772701466222,0.03162277660168379,-2.635267503315225,1.0220560046237726
9307177,1846.0,1,217507.0,257469,1.4,0.11,9.89,-0.03,-0.01,-0.0,32.27,7.387685,-105.3571801299901,657.6367951800255,9.989204172505437,0.03162277660168379,-0.8307265380360824,1.8666805901445296
9347177,2093.0,1,217664.0,257662,1.42,0.14,9.92,-0.03,-0.01,0.0,32.27,7.427685,149.85843658316045,749.45040639923,10.022095589246792,0.03162277660168379,1.183674830242751,2.1297490470318325
9387177,2199.0,1,217602.0,257670,1.41,0.11,9.925,-0.03,-0.01,0.0,32.27,7.467685,253.87236520326937,605.8279416997478,10.025259348266259,0.03162277660168379,2.0046504540342243,1.7182355507089582
9427177,2240.0,1,217360.0,256529,1.41,0.12,9.89,-0.03,-0.01,-0.0,32.27,7.507685,284.3126878156561,300.94522358840635,9.99072569936739,0.03162277660168379,2.244914072346267,0.8446719785968877
9467174,2195.0,1,216816.0,255598,1.41,0.13,9.9,-0.03,-0.01,-0.0,32.27,7.547682,252.66243854017787,-22.495771711439858,10.00074997187711,0.03162277660168379,1.9951005763385035,-0.08206559764852218
9507177,2128.0,1,216657.0,255448,1.4,0.12,9.91,-0.03,-0.01,-0.0,32.27,7.587685,167.54590819451357,-231.26232676331682,10.009120840513416,0.03162277660168379,1.3232809698441088,-0.6802328492998542
9547174,2045.0,1,216778.0,255645,1.42,0.14,9.9,-0.03,-0.01,-0.0,32.27,7.627682,98.19713051180464,-273.1098301775035,10.002299735560818,0.03162277660168379,0.7759152778397476,-0.8001361839097181
9586177,2032.0,1,216819.0,255794,1.42,0.14,9.9,-0.03,-0.01,-0.0,32.27,7.666685,74.580965993812,-195.15838705892395,10.002299735560818,0.03162277660168379,0.5895143250641522,-0.576786229790347
9626174,2017.0,1,216898.0,256047,1.41,0.14,9.925,-0.03,-0.01,0.0,32.27,7.706682,62.44146375714915,-99.72775693191167,10.025633396449324,0.03162277660168379,0.4936979709135265,-0.30335412888584673
9666177,1986.0,1,216913.0,256261,1.41,0.12,9.92,-0.03,-0.01,-0.0,32.27,7.746685,33.74856049512746,-72.5137183381369,10.020424142719708,0.03162277660168379,0.2672266274460463,-0.225379250831618
9706174,1974.0,1,216916.0,256282,1.41,0.12,9.92,-0.03,-0.01,-0.0,32.27,7.786682,14.932968743523533,-132.34484938114605,10.020424142719708,0.03162277660168379,0.11871630406717959,-0.3968100780074277
9746177,1937.0,1,216796.0,256371,1.41,0.12,9.91,-0.03,-0.01,0.0,32.27,7.826685,-13.195854354387562,-230.62795226957576,10.010524461785206,0.03162277660168379,-0.10330278891094102,-0.6784152111856241
9786177,1854.0,1,216630.0,256481,1.41,0.13,9.9,-0.03,-0.01,-0.0,32.27,7.866685,-102.89692651968038,-293.23182466927847,10.00074997187711,0.03162277660168379,-0.811307905654777,-0.857790620655572
9826177,1751.0,1,216767.0,256733,1.4,0.12,9.92,-0.03,-0.01,-0.0,32.27,7.906685,-200.83969432122512,-271.61182166106266,10.019021908350137,0.03162277660168379,-1.5843642256925847,-0.7958440230460824
9866174,1735.0,1,216903.0,256973,1.41,0.13,9.9,-0.03,-0.01,-0.0,32.27,7.946682,-215.19774284637322,-168.3630925176516,10.00074997187711,0.03162277660168379,-1.6976914310076892,-0.500011155885631
9906177,1776.0,1,217065.0,257151,1.41,0.13,9.9,-0.03,-0.01,-0.0,32.27,7.986685,-176.5685195166712,-25.832171249723917,10.00074997187711,0.03162277660168379,-1.3927933164916004,-0.09162519852295452
9946174,1818.0,1,217090.0,257265,1.41,0.1,9.89,-0.03,-0.01,-0.0,32.27,8.026682,-127.25499586520651,104.41616020319682,9.990505492716572,0.03162277660168379,-1.003564668192186,0.28156813427886906
9986177,1859.0,1,217153.0,257398,1.42,0.15,9.92,-0.03,-0.01,-0.0,32.27,8.066685,-87.33665273584991,184.89744714471206,10.022240268522802,0.03162277660168379,-0.6884916093613916,0.5121667098371314
10026179,1889.0,1,217180.0,257539,1.42,0.12,9.89,-0.03,-0.01,-0.0,32.27,8.106687,-57.48471639475115,198.54787369433888,9.992141912523062,0.03162277660168379,-0.4528720881670075,0.5512785212622404
10066177,1936.0,1,217231.0,257300,1.43,0.12,9.9,-0.03,-0.01,-0.0,32.27,8.146685,3.0784168192152417,147.28734425715538,10.003464399896668,0.03162277660168379,0.02514904543230218,0.4044045643489175
10106175,1993.0,1,217070.0,256069,1.42,0.11,9.89,-0.03,-0.01,-0.0,32.27,8.186683,42.80497297488811,51.792877199524305,9.992026821421168,0.03162277660168379,0.33870834132342176,0.13078955502150136
10146177,2053.0,1,216897.0,255189,1.41,0.13,9.9,-0.03,-0.01,0.0,32.27,8.226685,132.6572611088366,-51.55642221069394,10.00074997187711,0.03162277660168379,1.0479069965273589,-0.1653314705562738
10186177,2262.0,1,216867.0,255152,1.41,0.13,9.92,-0.03,-0.01,-0.0,32.27,8.266685,313.98009234590995,-124.43282214355668,10.020548887161821,0.03162277660168379,2.4790770951607937,-0.37414018441971547
10226863,2287.875,1,216742.0,255272,1.41,0.12,9.9,-0.03,-0.01,-0.0,32.33,8.307371,372.1105609051204,-146.74488039073532,10.00062498046997,0.03162277660168379,2.937897354330026,-0.43806968958917525
10265174,2287.875,1,216816.0,255404,1.43,0.12,9.885000000000002,-0.03,-0.01,0.0,32.33,8.345682,349.4253524826362,-126.86909101183849,9.988619774523407,0.03162277660168379,2.7588443814968477,-0.38112069072189453
10305177,2287.875,1,216879.0,255732,1.41,0.11,9.91,-0.03,-0.01,-0.0,32.33,8.385685,371.2483804334679,-90.32179355243645,10.010409582030098,0.03162277660168379,2.931092216211256,-0.2764037427838408
10345177,2287.875,1,216861.0,255964,1.41,0.12,9.885000000000002,-0.03,-0.01,-0.0,32.33,8.425685,359.42811339187926,-54.6639709356861,9.985776134081918,0.03162277660168379,2.8377955660742096,-0.17423535786590183
10385182,2203.0,1,216884.0,256015,1.4,0.15,9.9,-0.03,-0.01,-0.0,32.33,8.46569,285.8795096107297,-13.311416189141168,9.999624992968487,0.03162277660168379,2.2572809016512023,-0.05575017227017565
10425174,2039.0,1,216834.0,256152,1.42,0.12,9.92,-0.03,-0.01,-0.0,32.33,8.505682,116.82428009497781,55.63079176962552,10.021836159107771,0.03162277660168379,0.9229382386237344,0.1417861191497909
10465177,1876.0,1,216966.0,256411,1.43,0.12,9.91,-0.03,-0.01,-0.0,32.33,8.545685,-42.1310980366119,163.470967539087,10.013361074084964,0.03162277660168379,-0.33168691060231087,0.4507746041184965
10505177,1846.0,1,217134.0,256564,1.4,0.12,9.92,-0.03,-0.01,-0.0,32.33,8.585685,-71.18332450303252,293.86457173299164,10.019021908350137,0.03162277660168379,-0.5609943703071806,0.8243841788619117
10545177,1835.0,1,217179.0,256743,1.4,0.09,9.91,-0.03,-0.01,-0.0,32.33,8.625685,-88.34086240116805,412.5342746628195,10.008806122610228,0.03162277660168379,-0.6964177752830065,1.1644019084171848
10586174,1801.0,1,217366.0,256981,1.4,0.13,9.9,-0.03,-0.01,-0.0,32.33,8.666682,-112.02034645131533,494.39627288105356,9.999344978547345,0.03162277660168379,-0.8833185052816956,1.3989565595523694
10626177,1794.0,1,217227.0,257184,1.4,0.12,9.885000000000002,-0.03,-0.01,-0.0,32.33,8.706685,-136.78326252211193,539.6404591697058,9.984369033644542,0.03162277660168379,-1.078770698442947,1.5285922215421879
10666174,1702.0,1,217196.0,257377,1.41,0.11,9.885000000000002,-0.03,-0.01,-0.0,32.33,8.746682,-212.59530150798557,560.4880097624726,9.985660969610375,0.03162277660168379,-1.6771505195210474,1.58832555401318
10706177,1656.0,1,217225.0,257463,1.44,0.12,9.885000000000002,-0.03,-0.01,0.0,32.33,8.786685,-280.0171289938362,551.7315404092533,9.99005630614763,0.03162277660168379,-2.209306910609002,1.563236127184813
10746177,1597.0,1,217090.0,257627,1.43,0.12,9.92,-0.03,-0.01,-0.0,32.33,8.826685,-327.28095523709555,479.03061759225216,10.023257953380227,0.03162277660168379,-2.582357421704975,1.3549301981860091
10786177,1596.875,1,217081.0,257197,1.4,0.11,9.91,-0.03,-0.01,-0.0,32.33,8.866685,-343.25660532984625,304.72905058385095,10.00900594464805,0.03162277660168379,-2.708452257986687,0.8555135685921185
10826174,1596.875,1,216651.0,255766,1.41,0.13,9.885000000000002,-0.03,-0.01,0.0,32.33,8.906682,-340.9424636095867,32.196860519301445,9.985901311348918,0.03162277660168379,-2.690186877882924,0.07464217337787646
10866177,1596.875,1,216360.0,254663,1.43,0.14,9.92,-0.03,-0.01,0.0,32.33,8.946685,-351.044432112501,-274.8757794879359,10.023517346720162,0.03162277660168379,-2.7699211019741243,-0.8051960606956067
10906177,1650.0,1,215958.0,254318,1.4,0.12,9.91,-0.03,-0.01,-0.0,32.33,8.986685,-300.76440505081007,-523.8187680108117,10.009120840513416,0.03162277660168379,-2.3730639009353447,-1.5184786227688027
10946177,1700.0,1,215824.0,253954,1.41,0.13,9.89,-0.03,-0.01,0.0,32.33,9.026685,-260.24785099730406,-653.2716165682743,9.990850814620345,0.03162277660168379,-2.0532691995983225,-1.8893927024728607
10986177,1747.0,1,215893.0,253936,1.43,0.14,9.92,-0.03,-0.01,0.0,32.33,9.066685,-216.26780074044785,-669.8567479145464,10.023517346720162,0.03162277660168379,-1.7061373330011562,-1.936913161069357
11026178,1968.0,1,216122.0,254250,1.45,0.12,9.89,-0.03,-0.01,-0.0,32.33,9.106686,-6.630000761003,-628.2606296355056,9.996449369651208,0.03162277660168379,-0.05147890511899419,-1.8177301063690736
11066177,2112.0,1,215978.0,254665,1.42,0.12,9.91,-0.03,-0.01,0.0,32.33,9.146685,136.9462107051448,-576.1143521198208,10.011937874357791,0.03162277660168379,1.081759415303882,-1.6683182645266206
11106168,2029.0,1,215888.0,254885,1.43,0.13,9.92,-0.03,-0.01,0.0,32.33,9.186676,38.01293254100499,-518.5534923298696,10.023382662554594,0.03162277660168379,0.300885057109152,-1.5033923198766892
11146177,1897.0,1,215999.0,255074,1.43,0.11,9.89,-0.03,-0.01,-0.0,32.33,9.226685,-86.60908806304221,-432.7439492000752,9.993452856745762,0.03162277660168379,-0.6827489855702212,-1.2575269868656094
11186177,1872.0,1,216227.0,255383,1.39,0.14,9.9,-0.03,-0.01,0.0,32.33,9.266685,-136.04313383900174,-307.5821461634352,9.998084816603628,0.03162277660168379,-1.0729289076812347,-0.8989078023149605
11226861,1945.0,1,216510.0,255509,1.39,0.16,9.89,-0.03,-0.01,-0.0,32.19,9.307369,-45.90024277864404,-161.18768570342527,9.988483368359784,0.03162277660168379,-0.36143654122199265,-0.4794518600133614
11265177,2176.0,1,216492.0,255728,1.43,0.13,9.9,-0.03,-0.01,-0.0,32.19,9.345685,156.91456583993983,-21.025230604922445,10.003589355826238,0.03162277660168379,1.239368430080665,-0.07785213763378349
11305174,2260.0,1,216590.0,255984,1.41,0.12,9.9,-0.03,-0.01,-0.0,32.19,9.385682,258.4644299973629,104.07141506168577,10.00062498046997,0.03162277660168379,2.0408953426643897,0.2805803551120069
11345177,2287.875,1,216811.0,256113,1.41,0.14,9.89,-0.03,-0.01,-0.0,32.19,9.425685,267.8758494218928,224.77254849885733,9.990985937333713,0.03162277660168379,2.1151791048039428,0.6264186300280852
11385177,2287.875,1,216833.0,256280,1.41,0.12,9.91,-0.03,-0.01,-0.0,32.19,9.465685,274.67577451037215,343.24101648487994,10.010524461785206,0.03162277660168379,2.168850500695919,0.9658597722404179
11425177,2287.875,1,216901.0,256514,1.44,0.12,9.89,-0.03,-0.01,-0.0,32.19,9.505685,272.4546288689802,427.7516226691059,9.995003751875235,0.03162277660168379,2.1513191329967576,1.2080033331381146
11465177,2287.875,1,217027.0,256665,1.4,0.12,9.89,-0.03,-0.01,-0.0,32.19,9.545685,270.4714912686861,422.26359479631816,9.98931929612824,0.03162277660168379,2.1356663483162355,1.192278790723571
11505177,2287.875,1,217047.0,255910,1.42,0.12,9.92,-0.03,-0.01,0.0,32.19,9.585685,275.9200206414775,291.10393833960694,10.021836159107771,0.03162277660168379,2.1786712598690983,0.8164742888446747
11545177,2287.875,1,216654.0,254633,1.43,0.14,9.925,-0.03,-0.01,-0.0,32.19,9.625685,278.52015797477515,61.41861330196263,10.028465735096272,0.03162277660168379,2.199193985983443,0.1583696437387088
11585177,2227.0,1,216220.0,254028,1.39,0.13,9.9,-0.03,-0.01,0.0,32.19,9.665685,217.52348640423276,-179.31913669776543,9.997949789831914,0.03162277660168379,1.7177509604562988,-0.5314029026841579
11626177,2128.0,1,216333.0,254227,1.41,0.11,9.885000000000002,-0.03,-0.01,-0.0,32.19,9.706685,135.26050547420982,-334.8699722662383,9.985660969610375,0.03162277660168379,1.0684542462572448,-0.9770940996334996
11666177,2112.0,1,216298.0,254221,1.42,0.13,9.9,-0.03,-0.01,-0.0,32.19,9.746685,110.26767952202768,-359.0841419109029,10.002164765689475,0.03162277660168379,0.8711873883603147,-1.046473619278152
11706174,2065.0,1,216419.0,254371,1.42,0.14,9.885000000000002,-0.03,-0.01,-0.0,32.19,9.786682,90.63479354438604,-275.7191225539246,9.987453379115221,0.03162277660168379,0.7162262112742191,-0.8076124448901741
11746177,2047.0,1,216492.0,254731,1.41,0.13,9.9,-0.03,-0.01,-0.0,32.19,9.826685,62.596557619423805,-151.05205566517105,10.00074997187711,0.03162277660168379,0.4949221173525309,-0.45041080043257437
11786174,1975.0,1,216602.0,254889,1.42,0.14,9.92,-0.03,-0.01,-0.0,32.19,9.866682,18.469856042934506,-48.357894499967415,10.022095589246792,0.03162277660168379,0.146632740792873,-0.15616690619595047
11826177,1917.0,1,216674.0,254900,1.41,0.13,9.91,-0.03,-0.01,-0.0,32.19,9.906685,-42.38469805481243,2.5657815656003926,10.010649329588965,0.03162277660168379,-0.33368856014961445,-0.010258116598143
11866177,1869.0,1,216669.0,255077,1.4,0.13,9.89,-0.03,-0.01,-0.0,32.19,9.946685,-68.30836332684972,8.754202839990787,9.98944442899604,0.03162277660168379,-0.5383024762858193,0.0074732242521329826
11906177,1847.0,1,216678.0,255222,1.41,0.13,9.885000000000002,-0.03,-0.01,-0.0,32.19,9.986685,-83.66157710063139,-0.92828027598033,9.985901311348918,0.03162277660168379,-0.6594844604907445,-0.02026945854110304
11946177,1808.0,1,216732.0,255574,1.45,0.12,9.885000000000002,-0.03,-0.01,-0.0,32.19,10.026685,-107.83375153732572,5.638302104381418,9.991502639743436,0.03162277660168379,-0.8502739657986409,-0.0014545936111002933
11986177,1764.0,1,216724.0,255764,1.41,0.13,9.9,-0.03,-0.01,-0.0,32.19,10.066685,-136.36240225577112,50.04566909332944,10.00074997187711,0.03162277660168379,-1.075448873911637,0.12578337637049183
12026179,1735.0,1,216861.0,256056,1.41,0.12,9.925,-0.03,-0.01,-0.0,32.19,10.106687,-158.03685933968967,134.64376593078185,10.025374057859388,0.03162277660168379,-1.246524047793411,0.3681776193928834
12066177,1736.0,1,216840.0,256112,1.43,0.13,9.91,-0.03,-0.01,0.0,32.19,10.146685,-134.77454101987877,238.07120898870076,10.013485906516273,0.03162277660168379,-1.0629159815776483,0.6645225456379255
12106177,1755.0,1,216998.0,256373,1.43,0.13,9.91,-0.03,-0.01,-0.0,32.19,10.186685,-113.27223869684855,318.9752727655224,10.013485906516273,0.03162277660168379,-0.8931996147718495,0.8963324802549903
12146177,1733.0,1,217028.0,256578,1.4,0.13,9.89,-0.03,-0.01,-0.0,32.19,10.226685,-113.40861776910494,333.05281337057494,9.98944442899604,0.03162277660168379,-0.8942760465094365,0.9366680779355758
12186174,1716.0,1,216891.0,256830,1.41,0.13,9.91,-0.03,-0.01,-0.0,32.19,10.266682,-124.043451734282,259.73028886588145,10.010649329588965,0.03162277660168379,-0.9782161453433924,0.7265811080365359
12226224,1662.0,1,216718.0,256935,1.41,0.13,9.9,-0.03,-0.01,-0.0,32.19,10.306732,-167.82105933443,122.382420992051,10.00074997187711,0.03162277660168379,-1.3237501443416912,0.3330458665997836
12266861,1616.0,1,216837.0,255850,1.39,0.14,9.9,-0.03,-0.01,0.0,32.25,10.347369,-195.7985046455878,-16.292852875366805,9.998084816603628,0.03162277660168379,-1.5445744216392903,-0.06429271773742679
12305177,1596.875,1,216134.0,254791,1.42,0.12,9.91,-0.03,-0.01,-0.0,32.25,10.385685,-219.84812691652087,-87.58256074783695,10.011937874357791,0.03162277660168379,-1.7343966301431182,-0.26855517068878804
12345177,1596.875,1,216640.0,254604,1.43,0.12,9.92,-0.03,-0.01,-0.0,32.25,10.425685,-195.82318552434535,-59.08494680310473,10.023257953380227,0.03162277660168379,-1.5447692263169186,-0.18690253524770767
12385176,1802.0,1,216639.0,254741,1.4,0.13,9.9,-0.03,-0.01,-0.0,32.25,10.465684,1.5125055812066384,45.83276960143307,9.999344978547345,0.03162277660168379,0.012789403098999789,0.1137123887071435
12425195,2044.0,1,216669.0,254795,1.41,0.12,9.9,-0.03,-0.01,0.0,32.25,10.505703,255.4124597125541,167.50167225550246,10.00062498046997,0.03162277660168379,2.0168063264950726,0.4623235591790289
12465177,2163.0,1,216713.0,255180,1.41,0.12,9.9,-0.03,-0.01,-0.0,32.25,10.545685,380.8208119527782,251.7408194383447,10.00062498046997,0.03162277660168379,3.0066468370396784,0.7036893236296204
12505174,2176.0,1,216676.0,255391,1.38,0.11,9.9,-0.03,-0.01,0.0,32.25,10.585682,381.2779349900304,280.8208536795103,9.99632432447047,0.03162277660168379,3.010254881420237,0.7870107356998738
12545177,2124.0,1,216798.0,255440,1.39,0.14,9.92,-0.03,-0.01,-0.0,32.25,10.625685,351.9726434098966,273.8117958656177,10.017888999185407,0.03162277660168379,2.7789499941367075,0.7669280704082057
12585177,2035.0,1,216563.0,255449,1.41,0.14,9.92,-0.03,-0.01,-0.0,32.25,10.665685,234.456931294112,261.5171739330242,10.020683609415078,0.03162277660168379,1.851405612922906,0.7317009708870005
12625177,1809.0,1,216547.0,255601,1.42,0.11,9.91,-0.03,-0.01,-0.0,32.25,10.705685,29.43048342617901,257.3490745220835,10.011823010820756,0.03162277660168379,0.2331443072963365,0.7197583464152196
12666177,1778.0,1,216556.0,255771,1.4,0.12,9.9,-0.03,-0.01,-0.0,32.25,10.746685,-23.83165220589012,246.97487643154426,9.999219969577627,0.03162277660168379,-0.18725049564114546,0.6900337310027445
12704177,1831.0,1,216515.0,255938,1.41,0.14,9.91,-0.03,-0.01,-0.0,32.25,10.784685,28.402226868694587,205.63178897688493,10.010784185067621,0.03162277660168379,0.2250283407147681,0.5715756715142934
12744177,1794.0,1,216495.0,256025,1.42,0.12,9.91,-0.03,-0.01,-0.0,32.25,10.824685,-12.64207932327828,127.5625959236567,10.011937874357791,0.03162277660168379,-0.09893187621072415,0.3478883350264994
12784176,1703.0,1,216136.0,256216,1.42,0.14,9.9,-0.03,-0.01,0.0,32.25,10.864684,-126.14079849325407,37.12919368363865,10.002299735560818,0.03162277660168379,-0.9947703759795885,0.08877451451080916
12824177,1596.875,1,216067.0,256322,1.42,0.13,9.91,-0.03,-0.01,-0.0,32.25,10.904685,-228.48276933012198,-33.622915348767016,10.012062724533841,0.03162277660168379,-1.8025493384944495,-0.11394758624873477
12864177,1596.875,1,215968.0,256458,1.42,0.13,9.91,-0.03,-0.01,0.0,32.25,10.944685,-254.95800745961608,-80.42483153269883,10.012062724533841,0.03162277660168379,-2.011516785707929,-0.24804652546245048
12904177,1596.875,1,216186.0,256444,1.41,0.11,9.9,-0.03,-0.01,-0.0,32.25,10.984685,-260.50536001614046,-137.1838104206951,10.000509986995663,0.03162277660168379,-2.055301702650325,-0.4106748851608324
12944177,1596.875,1,215829.0,255579,1.41,0.13,9.9,-0.03,-0.01,-0.0,32.25,11.024685,-278.48161075425435,-247.12275799662962,10.00074997187711,0.03162277660168379,-2.197187158367088,-0.7256768647863298
12984177,1596.875,1,215495.0,254476,1.42,0.14,9.91,-0.03,-0.01,-0.0,32.25,11.064685,-295.0634286803517,-420.3850511531091,10.012197560975313,0.03162277660168379,-2.328066440556248,-1.2221157205525945
13024210,1596.875,1,215463.0,254093,1.42,0.13,9.89,-0.03,-0.01,-0.0,32.25,11.104718,-311.315279489193,-615.5622590919972,9.992267010043317,0.03162277660168379,-2.4563413123215954,-1.7813461683069012
13064177,1662.0,1,215344.0,254176,1.41,0.13,9.92,-0.03,-0.01,-0.0,32.25,11.144685,-258.8108615573961,-758.872513696186,10.020548887161821,0.03162277660168379,-2.0419271291904355,-2.1919651063295102
13104177,1737.0,1,215196.0,254216,1.41,0.12,9.89,-0.03,-0.01,-0.0,32.25,11.184685,-213.08906611381798,-786.1263583017169,9.99072569936739,0.03162277660168379,-1.681047773577857,-2.2700540383453296
13144177,1719.0,1,215091.0,254551,1.43,0.13,9.9,-0.03,-0.01,-0.0,32.25,11.224685,-227.5437508396299,-680.6827374382037,10.003589355826238,0.03162277660168379,-1.7951377225579044,-1.9679322694613266
13184177,1843.0,1,215667.0,254852,1.39,0.13,9.92,-0.03,-0.01,-0.0,32.25,11.264685,-148.02866639464105,-483.51776275116276,10.017754239349257,0.03162277660168379,-1.1675299884872208,-1.403006383697943
13224177,2009.0,1,215773.0,254846,1.4,0.12,9.92,-0.03,-0.01,0.0,32.25,11.304685,32.071602053551146,-267.80717860897437,10.019021908350137,0.03162277660168379,0.2539904962767894,-0.7849427899562492
13264177,2157.0,1,215848.0,254808,1.42,0.14,9.89,-0.03,-0.01,-0.0,32.25,11.344685,136.05665405848984,-96.45571109226663,9.992402113606119,0.03162277660168379,1.074738198697857,-0.2939789171011272
13304864,2169.0,1,215825.0,255011,1.43,0.11,9.885000000000002,-0.03,-0.01,-0.0,32.21,11.385372,154.04423317727066,6.105494557936813,9.988504642838189,0.03162277660168379,1.2167130686354646,-0.00011597294043764794
13345177,2236.0,1,216056.0,255196,1.41,0.13,9.9,-0.03,-0.01,0.0,32.21,11.425685,198.0507388031578,53.77100855769958,10.00074997187711,0.03162277660168379,1.564053745854256,0.13645738528114706
13385177,2287.875,1,216124.0,255546,1.4,0.15,9.91,-0.03,-0.01,-0.0,32.21,11.465685,233.8673481053736,82.30857932651342,10.009525463277468,0.03162277660168379,1.8467520686084775,0.2182245067980248
13425177,2287.875,1,216172.0,255779,1.41,0.13,9.925,-0.03,-0.01,0.0,32.21,11.505685,238.28562834521767,131.95740363180295,10.025498740711107,0.03162277660168379,1.8816252863026148,0.3604805342303646
13465177,2277.0,1,216186.0,255923,1.4,0.13,9.91,-0.03,-0.01,-0.0,32.21,11.545685,195.61822613080363,229.8077301631464,10.009245725827697,0.03162277660168379,1.544854071012049,0.6408456572736347
13505177,2190.0,1,216322.0,256177,1.4,0.14,9.885000000000002,-0.03,-0.01,-0.0,32.21,11.585685,125.39871471613165,369.7229759072456,9.984629437290101,0.03162277660168379,0.9906157305245648,1.0417370643769972
13545174,2251.0,1,216497.0,256380,1.4,0.13,9.89,-0.03,-0.01,-0.0,32.21,11.625682,160.66456942087592,502.34348279691295,9.98944442899604,0.03162277660168379,1.268966980677898,1.4217272601202096
13585177,2279.0,1,216605.0,256563,1.4,0.14,9.89,-0.03,-0.01,0.0,32.21,11.665685,197.94199597972528,554.3180777805543,9.989579570732696,0.03162277660168379,1.563195445350807,1.5706471895089487
13625177,2262.0,1,216723.0,256197,1.4,0.13,9.91,-0.03,-0.01,-0.0,32.21,11.705685,174.68556905396406,475.1614241624945,10.009245725827697,0.03162277660168379,1.379633879550605,1.3438440124729267
13664177,2287.875,1,216311.0,255004,1.4,0.12,9.92,-0.03,-0.01,0.0,32.21,11.744685,200.19157685936364,279.084228924218,10.019021908350137,0.03162277660168379,1.5809512506591108,0.782034880938249
13704177,2287.875,1,216059.0,254351,1.41,0.14,9.9,-0.03,-0.01,0.0,32.21,11.784685,205.6314964433346,44.32853978818831,10.000884960842216,0.03162277660168379,1.6238882056715245,0.10940240230622296
13744177,2268.0,1,216023.0,254411,1.4,0.11,9.91,-0.03,-0.01,-0.0,32.21,11.824685,189.8079746084461,-134.02552517904343,10.00900594464805,0.03162277660168379,1.4989941084932346,-0.4016256253190906
13784177,2259.0,1,216006.0,254536,1.4,0.13,9.92,-0.03,-0.01,-0.0,32.21,11.864685,183.09642758188238,-201.57214179342958,10.019146670250915,0.03162277660168379,1.446020275278423,-0.5951632061281115
13824177,2189.0,1,215986.0,254554,1.42,0.14,9.9,-0.03,-0.01,-0.0,32.21,11.904685,131.86487953388112,-169.4413028036598,10.002299735560818,0.03162277660168379,1.0416527768626458,-0.503100492122096
13864213,2146.0,1,216156.0,254823,1.41,0.13,9.91,-0.03,-0.01,-0.0,32.21,11.944721,83.69009433125049,-93.42494413898156,10.010649329588965,0.03162277660168379,0.6614121220057376,-0.2852950283508831
13904177,2091.0,1,216275.0,255040,1.4,0.13,9.92,-0.03,-0.01,-0.0,32.21,11.984685,59.2351555191697,-29.553424282174788,10.019146670250915,0.03162277660168379,0.46839077464987133,-0.10228749880648026
13944174,2062.0,1,216261.0,254994,1.41,0.11,9.9,-0.03,-0.01,-0.0,32.21,12.024682,23.970319137770367,-1.0161464104098827,10.000509986995663,0.03162277660168379,0.190047562060876,-0.020521216511300382
13984177,1997.0,1,216212.0,255006,1.4,0.13,9.9,-0.03,-0.01,0.0,32.21,12.064685,-8.101598366548243,3.4673364540079796,9.999344978547345,0.03162277660168379,-0.06309413567715402,-0.007674941291745946
14024207,1984.0,1,216317.0,255104,1.41,0.12,9.91,-0.03,-0.01,-0.0,32.21,12.104715,-20.99552704857056,7.781828538351453,10.010524461785206,0.03162277660168379,-0.16486513195889174,0.004687134001980366
14064217,1946.0,1,216437.0,255416,1.4,0.13,9.91,-0.03,-0.01,0.0,32.21,12.144725,-30.373414443827453,28.25112957982823,10.009245725827697,0.03162277660168379,-0.23888422782716165,0.06333668897577083
14104177,1921.0,1,216467.0,255683,1.41,0.14,9.885000000000002,-0.03,-0.01,0.0,32.21,12.184685,-46.93718610375106,71.26981534872465,9.986036501034834,0.03162277660168379,-0.3696210719330224,0.18659574754307215
14144177,1871.0,1,216504.0,255879,1.42,0.13,9.91,-0.03,-0.01,-0.0,32.21,12.224685,-73.09839926254729,141.01635313553382,10.012062724533841,0.03162277660168379,-0.5761099391176061,0.3864366406869202
14184177,1822.0,1,216661.0,256140,1.4,0.13,9.91,-0.03,-0.01,-0.0,32.21,12.264685,-109.0763807179264,238.79359984556368,10.009245725827697,0.03162277660168379,-0.8600819624796536,0.6665923721643073
14224177,1774.0,1,216744.0,256278,1.42,0.14,9.91,-0.03,-0.01,-0.0,32.21,12.304685,-134.78773073801858,349.0294990870288,10.012197560975313,0.03162277660168379,-1.0630200872221627,0.9824451909560666
14264177,1740.0,1,216805.0,256448,1.4,0.11,9.9,-0.03,-0.01,-0.0,32.21,12.344685,-156.01417919265867,427.9683643494208,9.999104959945166,0.03162277660168379,-1.2305591561921685,1.2086243510746324
14304864,1696.0,1,216843.0,256604,1.38,0.11,9.9,-0.03,-0.01,-0.0,32.17,12.385372,-177.58324177883978,415.9610791285568,9.99632432447047,0.03162277660168379,-1.4008024577019238,1.1742205415249027
14345174,1694.0,1,216878.0,256190,1.41,0.14,9.9,-0.03,-0.01,-0.0,32.17,12.425682,-168.3231896087766,275.304677995299,10.000884960842216,0.03162277660168379,-1.3277134281121938,0.7712055429196861
14385177,1696.0,1,216515.0,254911,1.41,0.13,9.9,-0.03,-0.01,-0.0,32.17,12.465685,-146.30708516578008,27.513317960890177,10.00074997187711,0.03162277660168379,-1.1539416523670276,0.061222678193598716
14425174,1681.0,1,216114.0,254323,1.39,0.11,9.89,-0.03,-0.01,-0.0,32.17,12.505682,-148.7441999932969,-245.08674150497197,9.987807567229156,0.03162277660168379,-1.1731776517405312,-0.7198431794585769
14465177,1673.0,1,215999.0,254369,1.41,0.13,9.89,-0.03,-0.01,-0.0,32.17,12.545685,-144.3511854309483,-442.73684375510567,9.990850814620345,0.03162277660168379,-1.1385038545049568,-1.2861590743689875
14505177,1673.0,1,215978.0,254432,1.4,0.14,9.91,-0.03,-0.01,-0.0,32.17,12.585685,-126.5619810737268,-506.0749409694505,10.009380600216979,0.03162277660168379,-0.9980947445167736,-1.467638217549345
14545177,1670.0,1,216104.0,254594,1.4,0.15,9.89,-0.03,-0.01,-0.0,32.17,12.625685,-128.6076657629703,-444.7443764489802,9.989724720932005,0.03162277660168379,-1.0142412095730666,-1.2919111466479822
14585174,1658.0,1,216140.0,254925,1.4,0.11,9.89,-0.03,-0.01,-0.0,32.17,12.665682,-117.20678784775448,-319.79666386963294,9.989204172505437,0.03162277660168379,-0.9242547723488773,-0.9339053836313129
14625177,1695.0,1,216232.0,255215,1.41,0.14,9.89,-0.03,-0.01,-0.0,32.17,12.705685,-88.46707663924181,-200.08924760865176,9.990985937333713,0.03162277660168379,-0.697413976601509,-0.590914351522172
14665177,1693.0,1,216372.0,255263,1.4,0.12,9.91,-0.03,-0.01,-0.0,32.17,12.745685,-67.78670254852737,-126.19005793315316,10.009120840513416,0.03162277660168379,-0.534185039433156,-0.37917509483678435
14704177,1729.0,1,216343.0,255261,1.42,0.13,9.925,-0.03,-0.01,-0.0,32.17,12.784685,-40.99134049014737,-100.79315953237048,10.026910042480685,0.03162277660168379,-0.32269087348407766,-0.3064067679700155
14744177,1734.0,1,216268.0,255359,1.4,0.13,9.89,-0.03,-0.01,-0.0,32.17,12.824685,-22.773360940908027,-101.89035796109481,9.98944442899604,0.03162277660168379,-0.1788974669367401,-0.30955050988051025
14784177,1756.0,1,216347.0,255586,1.42,0.13,9.9,-0.03,-0.01,-0.0,32.17,12.864685,-4.709252475412297,-101.75672137422018,10.002164765689475,0.03162277660168379,-0.03631855551169773,-0.3091676083670422
14824177,1773.0,1,216378.0,255712,1.39,0.12,9.9,-0.03,-0.01,0.0,32.17,12.904685,14.382207059696503,-77.48059881429117,9.99782476341729,0.03162277660168379,0.1143691755341177,-0.2396105784643587
14864177,1794.0,1,216421.0,255970,1.4,0.14,9.925,-0.03,-0.01,-0.0,32.17,12.944685,33.466799827307696,-12.958524087253057,10.024231890773478,0.03162277660168379,0.265002707600964,-0.05473905006880859
14904174,1821.0,1,216514.0,256205,1.41,0.13,9.89,-0.03,-0.01,-0.0,32.17,12.984682,58.88873442339685,96.507701249434,9.990850814620345,0.03162277660168379,0.46565649397256537,0.258908464697244
14944177,1817.0,1,216477.0,256431,1.42,0.14,9.91,-0.03,-0.01,-0.0,32.17,13.024685,47.01324833719822,231.8899113002259,10.012197560975313,0.03162277660168379,0.3719240032688249,0.6468116156039698
14984177,1814.0,1,216648.0,256713,1.39,0.12,9.91,-0.03,-0.01,-0.0,32.17,13.064685,44.910601249588325,343.7673702044388,10.00772701466222,0.03162277660168379,0.35532793746047964,0.9673679044110461
15024205,1825.0,1,216780.0,256807,1.4,0.13,9.91,-0.03,-0.01,-0.0,32.17,13.104713,41.60648330172449,371.15407786777575,10.009245725827697,0.03162277660168379,0.32924873509484864,1.0458375215903206
15064174,1798.0,1,216758.0,255885,1.42,0.12,9.9,-0.03,-0.01,-0.0,32.17,13.144682,13.900525651007516,283.65583694410606,10.002039791962437,0.03162277660168379,0.11056729341877623,0.7951336562866477
15104177,1881.0,1,216369.0,254790,1.4,0.13,9.91,-0.03,-0.01,-0.0,32.17,13.184685,84.17723408350801,113.23408321513463,10.009245725827697,0.03162277660168379,0.6652570864954831,0.30683364087312776
15144175,1950.0,1,216099.0,254468,1.42,0.13,9.89,-0.03,-0.01,-0.0,32.17,13.224683,144.66818608751905,-59.28919238190244,9.992267010043317,0.03162277660168379,1.1427084981868207,-0.18748774879640565
15184177,1938.0,1,216070.0,254507,1.42,0.12,9.9,-0.03,-0.01,-0.0,32.17,13.264685,124.10226672385058,-158.0130135526509,10.002039791962437,0.03162277660168379,0.9803829452303615,-0.4703556476681855
15224174,1975.0,1,216197.0,254709,1.4,0.11,9.925,-0.03,-0.01,-0.0,32.17,13.304682,149.15675153425775,-160.95158978846547,10.02385779029212,0.03162277660168379,1.1781364727518806,-0.47877538745987924
15264177,1967.0,1,216184.0,254936,1.41,0.12,9.885000000000002,-0.03,-0.01,-0.0,32.17,13.344685,129.2007894050268,-104.21494807593011,9.985776134081918,0.03162277660168379,1.0206252752156209,-0.31621102923362865
15304864,1935.0,1,216119.0,255147,1.41,0.13,9.9,-0.03,-0.01,-0.0,32.21,13.385372,90.61634559358964,-44.5085348018555,10.00074997187711,0.03162277660168379,0.7160806027185798,-0.14513754897604123
15343177,2000.0,1,216237.0,255224,1.4,0.14,9.91,-0.03,-0.01,-0.0,32.21,13.423685,136.12752019957725,-16.30617699679035,10.009380600216979,0.03162277660168379,1.0752975408470937,-0.06433089460484029
15383177,1984.0,1,216099.0,255108,1.41,0.13,9.9,-0.03,-0.01,-0.0,32.21,13.463685,118.55290510664875,-14.709762615286378,10.00074997187711,0.03162277660168379,0.9365821708940104,-0.059756776864364085
15423176,1929.0,1,216208.0,255283,1.41,0.13,9.9,-0.03,-0.01,-0.0,32.21,13.503684,42.42180742723926,-7.36495931893352,10.00074997187711,0.03162277660168379,0.33568403891825715,-0.03871211863063839
15463177,1908.0,1,216232.0,255446,1.39,0.14,9.92,-0.03,-0.01,-0.0,32.21,13.543685,17.97334001252883,40.47132775962067,10.017888999185407,0.03162277660168379,0.1427137699089489,0.09835054623860988
15503231,1908.0,1,216357.0,255759,1.42,0.13,9.92,-0.03,-0.01,-0.0,32.21,13.583739,2.087860151203667,143.36609427725705,10.02196088597436,0.03162277660168379,0.017330641789538644,0.39316922388487247
15543177,1905.0,1,216413.0,255954,1.42,0.15,9.92,-0.03,-0.01,-0.0,32.21,13.623685,-9.691366360648187,282.29791972164844,10.022240268522802,0.03162277660168379,-0.07564207793791385,0.7912428912513879
15583176,1939.0,1,216478.0,256103,1.4,0.13,9.9,-0.03,-0.01,-0.0,32.21,13.663684,14.982539716152255,403.50714424405516,9.999344978547345,0.03162277660168379,0.11910756474462647,1.138536971423093
15623177,1958.0,1,216608.0,256413,1.39,0.13,9.89,-0.03,-0.01,-0.0,32.21,13.703685,21.630113827095492,434.9974648491826,9.988047857314262,0.03162277660168379,0.1715764636203159,1.228764443564441
15663177,1919.0,1,216477.0,256486,1.41,0.14,9.92,-0.03,-0.01,-0.0,32.21,13.743685,-22.489937603773566,321.7680090408214,10.020683609415078,0.03162277660168379,-0.1766604237436995,0.9043343528823731
15703224,1869.0,1,216249.0,256187,1.41,0.13,9.91,-0.03,-0.01,-0.0,32.21,13.783732,-85.26952162634619,64.73515182788135,10.010649329588965,0.03162277660168379,-0.6721758690120219,0.16787233795403267
15743177,1776.0,1,215913.0,254940,1.38,0.15,9.89,-0.03,-0.01,-0.0,32.21,13.823685,-180.93350290878115,-264.7471887423604,9.986941473744603,0.03162277660168379,-1.4272458654022864,-0.7761751704103954
15783177,1690.0,1,215446.0,254128,1.39,0.12,9.91,-0.03,-0.01,-0.0,32.21,13.863685,-279.18406332654905,-553.0408187181498,10.00772701466222,0.03162277660168379,-2.202731573873494,-1.6022069467567168
15823177,1670.0,1,215444.0,254085,1.43,0.13,9.925,-0.03,-0.01,-0.0,32.21,13.903685,-298.8414598710265,-702.3241135723424,10.028331117389374,0.03162277660168379,-2.3578862113755594,-2.0299401063051814
15863177,1715.0,1,215515.0,254286,1.42,0.11,9.9,-0.03,-0.01,-0.0,32.21,13.943685,-265.6752067447758,-680.665797938743,10.001924814754409,0.03162277660168379,-2.096106989012013,-1.9678837336513917
15903177,1773.0,1,215608.0,254400,1.4,0.11,9.9,-0.03,-0.01,-0.0,32.21,13.983685,-205.31318644176184,-531.5233740380838,9.999104959945166,0.03162277660168379,-1.6196732274090515,-1.5405542038466455
15943174,1856.0,1,215770.0,254680,1.42,0.15,9.89,-0.03,-0.01,-0.0,32.21,14.023682,-130.1007755365218,-340.86450331492455,9.992547222805605,0.03162277660168379,-1.026026234367271,-0.9942698975549636
15983177,1936.0,1,216003.0,254931,1.41,0.13,9.92,-0.03,-0.01,-0.0,32.21,14.063685,-51.167993754559035,-187.46908558334871,10.020548887161821,0.03162277660168379,-0.40301457986357764,-0.5547544999971317
16023196,2047.0,1,216037.0,254922,1.41,0.12,9.9,-0.03,-0.01,-0.0,32.21,14.103704,61.93216791123847,-106.63085535769598,10.00062498046997,0.03162277660168379,0.48967812972169894,-0.3231331946093002
16063177,2138.0,1,216085.0,255096,1.41,0.11,9.9,-0.03,-0.01,-0.0,32.21,14.143685,145.11796306707436,-83.37192058808175,10.000509986995663,0.03162277660168379,1.1462585605799653,-0.2564906565647339
16103177,2151.0,1,216013.0,255237,1.42,0.13,9.91,-0.03,-0.01,-0.0,32.21,14.183685,168.56121526744454,-71.76074234205582,10.012062724533841,0.03162277660168379,1.3312947269302753,-0.2232217903992067
16143177,2143.0,1,216197.0,255609,1.41,0.11,9.89,-0.03,-0.01,0.0,32.21,14.223685,153.20245592678774,-23.397727243039306,9.990610591950825,0.03162277660168379,1.2100689719026825,-0.08464992089567493
16183177,2101.0,1,216293.0,255895,1.41,0.14,9.9,-0.03,-0.01,-0.0,32.21,14.263685,118.41149141914086,91.4930358765537,10.000884960842216,0.03162277660168379,0.9354660012439007,0.24454022164556583
16223176,2147.0,1,216563.0,256170,1.4,0.14,9.91,-0.03,-0.01,-0.0,32.21,14.303684,169.48243587387495,274.33947834743606,10.009380600216979,0.03162277660168379,1.3385658652484518,0.768440009807768
16263177,2222.0,1,216556.0,256341,1.4,0.13,9.91,-0.03,-0.01,-0.0,32.21,14.343685,240.03414517254447,493.7816541429054,10.009245725827697,0.03162277660168379,1.8954262234662074,1.3971955265108453
16303177,2216.0,1,216900.0,256533,1.4,0.13,9.925,-0.03,-0.01,-0.0,32.21,14.383685,252.35581428249105,685.5859588120375,10.02409721620855,0.03162277660168379,1.992680409688098,1.946761781269993
16343863,2256.0,1,216953.0,256659,1.41,0.14,9.92,-0.03,-0.01,-0.0,32.19,14.424371,282.99181008964604,767.7073101758692,10.020683609415078,0.03162277660168379,2.2344884646468985,2.18205954261395
16384177,2224.0,1,216967.0,256677,1.41,0.13,9.9,-0.03,-0.01,-0.0,32.19,14.464685,269.6761456746711,677.6081685837613,10.00074997187711,0.03162277660168379,2.1293887338290345,1.9239034606260903
16424174,2139.0,1,216744.0,255537,1.38,0.12,9.91,-0.03,-0.01,0.0,32.19,14.504682,183.94255367910395,415.6280216858602,10.006342988324956,0.03162277660168379,1.4526986971944897,1.1732662504743543
16464177,2033.0,1,216234.0,254253,1.41,0.15,9.91,-0.03,-0.01,-0.0,32.19,14.544685,86.24775094594874,60.26165987769215,10.010929027817548,0.03162277660168379,0.6815995503872316,0.15505468914786213
16504177,1942.0,1,215923.0,253938,1.42,0.14,9.91,-0.03,-0.01,-0.0,32.19,14.584685,6.941729886916606,-265.27462111362945,10.012197560975313,0.03162277660168379,0.05564194092942216,-0.7776863931820485
16544177,1880.0,1,215847.0,254057,1.41,0.12,9.91,-0.03,-0.01,-0.0,32.19,14.624685,-55.131076175572915,-457.64846794404025,10.010524461785206,0.03162277660168379,-0.4342949488092794,-1.3288845255627195
16584177,1740.0,1,215775.0,254149,1.39,0.13,9.9,-0.03,-0.01,-0.0,32.19,14.664685,-177.87284949696325,-484.757098909027,9.997949789831914,0.03162277660168379,-1.4030883138386496,-1.4065573849741653
16624177,1630.0,1,215888.0,254217,1.42,0.14,9.92,-0.03,-0.01,-0.0,32.19,14.704685,-289.5348531532589,-389.69604673296527,10.022095589246792,0.03162277660168379,-2.28442972956718,-1.1341842153105246
16664177,1614.0,1,216106.0,254523,1.43,0.13,9.89,-0.03,-0.01,-0.0,32.19,14.744685,-287.76748695274614,-250.04297236180253,9.993693011094548,0.03162277660168379,-2.270480015445398,-0.7340439933266947
16704177,1670.0,1,216201.0,254652,1.41,0.11,9.9,-0.03,-0.01,-0.0,32.19,14.784685,-234.3681269266005,-126.36894059110541,10.000509986995663,0.03162277660168379,-1.8490021086965234,-0.37968763741262374
16744174,1723.0,1,216249.0,254727,1.41,0.16,9.885000000000002,-0.03,-0.01,-0.0,32.19,14.824682,-161.6318974666667,-36.79866684735445,9.986336916006792,0.03162277660168379,-1.2748994654706785,-0.12304689118944043
16784176,1773.0,1,216308.0,254816,1.41,0.14,9.9,-0.03,-0.01,-0.0,32.19,14.864684,-117.64423072326332,30.627446570352102,10.000884960842216,0.03162277660168379,-0.9277074824076009,0.070145418481897
16824174,1763.0,1,216403.0,255107,1.39,0.14,9.925,-0.03,-0.01,-0.0,32.19,14.904682,-106.15436097315573,88.1839464710592,10.022840166340078,0.03162277660168379,-0.837018638033409,0.23505887098256656
16864177,1805.0,1,216517.0,255388,1.41,0.12,9.89,-0.03,-0.01,-0.0,32.19,14.944685,-70.6391545746728,133.28052173273,9.99072569936739,0.03162277660168379,-0.556699270099829,0.36427159126938596
16904177,1806.0,1,216585.0,255607,1.41,0.13,9.89,-0.03,-0.01,-0.0,32.19,14.984685,-52.38595342305104,160.27294436470814,9.990850814620345,0.03162277660168379,-0.41262786158323156,0.441611485378236
16944177,1813.0,1,216609.0,255863,1.41,0.13,9.885000000000002,-0.03,-0.01,-0.0,32.19,15.024685,-46.39503591527063,180.26121767907551,9.985901311348918,0.03162277660168379,-0.3653419134099173,0.49888277823805127
16984177,1808.0,1,216576.0,256020,1.39,0.12,9.91,-0.03,-0.01,-0.0,32.19,15.064685,-42.58145818723159,219.29974813700497,10.00772701466222,0.03162277660168379,-0.33524157592926146,0.6107377181575407
17024210,1789.0,1,216616.0,256211,1.41,0.13,9.91,-0.03,-0.01,-0.0,32.19,15.104718,-56.85855850582917,288.68654491133185,10.010649329588965,0.03162277660168379,-0.44792986196452284,0.809547865295692
17064177,1813.0,1,216767.0,256411,1.42,0.12,9.91,-0.03,-0.01,0.0,32.19,15.144685,-29.438152997944968,355.74558401572244,10.011937874357791,0.03162277660168379,-0.2315022660156255,1.0016884172604683
17104177,1854.0,1,216848.0,256665,1.41,0.13,9.89,-0.03,-0.01,-0.0,32.19,15.184685,16.920550908438106,351.95199498754374,9.990850814620345,0.03162277660168379,0.1344041694264165,0.9908188566533279
17144177,1861.0,1,216783.0,256423,1.39,0.12,9.9,-0.03,-0.01,-0.0,32.19,15.224685,26.527673481654674,223.2259064017379,9.99782476341729,0.03162277660168379,0.2102326046371868,0.6219871220583708
17184177,1862.0,1,216532.0,255000,1.42,0.15,9.9,-0.03,-0.01,-0.0,32.19,15.264685,31.24694998357956,-16.837756483429576,10.00244470117181,0.03162277660168379,0.2474815675540936,-0.0658539998765549
17224174,1888.0,1,216144.0,254082,1.41,0.13,9.91,-0.03,-0.01,-0.0,32.19,15.304682,58.18228511750227,-280.70578040844083,10.010649329588965,0.03162277660168379,0.4600805324905016,-0.8219004395501439
17264177,1909.0,1,216036.0,254040,1.42,0.12,9.925,-0.03,-0.01,0.0,32.19,15.344685,84.86864538675015,-459.61241846625217,10.02678537717847,0.03162277660168379,0.6707143539355859,-1.3345117242582136
17304177,1907.0,1,216071.0,254312,1.41,0.14,9.92,-0.03,-0.01,-0.0,32.19,15.384685,77.40831954982602,-494.7550091821547,10.020683609415078,0.03162277660168379,0.6118304550298355,-1.435203843736908
17344866,1881.0,1,216294.0,254414,1.43,0.14,9.925,-0.03,-0.01,-0.0,32.21,15.425374,63.27968696387438,-409.9421718931439,10.028465735096272,0.03162277660168379,0.5003140157946993,-1.1921943167879547
17383177,1914.0,1,216353.0,254810,1.41,0.13,9.9,-0.03,-0.01,-0.0,32.21,15.463685,82.79296190908222,-283.1821456483093,10.00074997187711,0.03162277660168379,0.6543311102635203,-0.8289958317658602
17423177,1916.0,1,216529.0,255040,1.41,0.11,9.91,-0.03,-0.01,-0.0,32.21,15.503685,101.13337227657561,-185.73658548181305,10.010409582030098,0.03162277660168379,0.7990908558264191,-0.5497904633775509
17463177,1905.0,1,216557.0,255182,1.41,0.13,9.92,-0.03,-0.01,0.0,32.21,15.543685,74.3592665285327,-138.58524719006286,10.020548887161821,0.03162277660168379,0.5877644646443361,-0.4146903443443569
17503177,1867.0,1,216654.0,255273,1.38,0.14,9.9,-0.03,-0.01,0.0,32.21,15.583685,48.65348727043182,-114.8594626977601,9.996699455320242,0.03162277660168379,0.38487030958801705,-0.34671016763690526
17543197,1867.0,1,216641.0,255622,1.42,0.13,9.91,-0.03,-0.01,-0.0,32.21,15.623705,40.56894485936876,-76.85691793660672,10.012062724533841,0.03162277660168379,0.3210595071595051,-0.2378235801761545
17583177,1831.0,1,216886.0,255855,1.4,0.13,9.9,-0.03,-0.01,-0.0,32.21,15.663685,4.4419109024733965,-11.446281240934768,9.999344978547345,0.03162277660168379,0.035911021452141076,-0.05040610436787092
17623174,1823.0,1,216995.0,256186,1.42,0.12,9.92,-0.03,-0.01,-0.0,32.21,15.703682,0.5613075714612519,65.05674624563464,10.021836159107771,0.03162277660168379,0.005281654956421183,0.1687937846338713
17663177,1835.0,1,217067.0,256457,1.42,0.13,9.885000000000002,-0.03,-0.01,-0.0,32.21,15.743685,1.766136125711307,131.13466707970235,9.987318208608357,0.03162277660168379,0.01479129358856866,0.3581231927391434
17703177,1787.0,1,217238.0,256621,1.42,0.13,9.885000000000002,-0.03,-0.01,-0.0,32.21,15.783685,-37.494686020637815,185.57967947012548,9.987318208608357,0.03162277660168379,-0.29509199204221404,0.5141214723467625
17743177,1826.0,1,217304.0,256834,1.41,0.12,9.9,-0.03,-0.01,0.0,32.21,15.823685,-8.418925133540894,246.5900200594291,10.00062498046997,0.03162277660168379,-0.06559877658374849,0.688931023347625
17783177,1833.0,1,217362.0,257160,1.4,0.11,9.92,-0.03,-0.01,-0.0,32.21,15.863685,0.8427202372589866,323.0101097533287,10.018907126029266,0.03162277660168379,0.007502828042671203,0.9078932752839523
17823177,1792.0,1,217463.0,257487,1.42,0.12,9.9,-0.03,-0.01,-0.0,32.21,15.903685,-42.00070876546338,386.0773804634358,10.002039791962437,0.03162277660168379,-0.33065775600122044,1.0885964342762582
17863174,1833.0,1,217601.0,258000,1.4,0.12,9.92,-0.03,-0.01,0.0,32.21,15.943682,-6.4014789309753475,375.8459888872497,10.019021908350137,0.03162277660168379,-0.04967519618841303,1.0592809944627544
17903177,1840.0,1,217802.0,257457,1.4,0.13,9.9,-0.03,-0.01,-0.0,32.21,15.983685,3.522847381540164,246.85467731206836,9.999344978547345,0.03162277660168379,0.028656908878834462,0.6896893311206372
17943174,1829.0,1,217303.0,256117,1.41,0.12,9.89,-0.03,-0.01,-0.0,32.21,16.023682,-15.730817417493952,14.907279402051502,9.99072569936739,0.03162277660168379,-0.12331109846747254,0.02510329385506095
17983177,1853.0,1,216995.0,255391,1.42,0.12,9.9,-0.03,-0.01,0.0,32.21,16.063685,13.27993319246285,-242.95555917769028,10.002039791962437,0.03162277660168379,0.10566899482037591,-0.7137368207309484
18023193,1872.0,1,216956.0,255484,1.4,0.12,9.92,-0.03,-0.01,-0.0,32.21,16.103701,20.661126937801047,-440.35489322749487,10.019021908350137,0.03162277660168379,0.1639283089314402,-1.2793342034009518
18063177,1879.0,1,217089.0,255797,1.4,0.11,9.91,-0.03,-0.01,-0.0,32.21,16.143685,37.27138989873022,-537.2263908692453,10.00900594464805,0.03162277660168379,0.29503210605359675,-1.5568947422205697
18103174,1890.0,1,217120.0,256023,1.41,0.11,9.92,-0.03,-0.01,-0.0,32.21,16.183682,32.19636516832751,-548.7255215743268,10.020309376461388,0.03162277660168379,0.25497524396720483,-1.5898425647706367
18143177,1834.0,1,217105.0,256354,1.4,0.11,9.9,-0.03,-0.01,0.0,32.21,16.223685,-12.692339037289779,-507.4823925543525,9.999104959945166,0.03162277660168379,-0.09932857308209099,-1.4716709106508044
18183174,1863.0,1,217282.0,256734,1.41,0.12,9.9,-0.03,-0.01,-0.0,32.21,16.263682,4.139701939733463,-424.03789660094105,10.00062498046997,0.03162277660168379,0.03352570445669375,-1.2325820163713561
18223177,1885.0,1,217501.0,257286,1.42,0.13,9.9,-0.03,-0.01,0.0,32.21,16.303685,27.134426167326886,-284.4106947181338,10.002164765689475,0.03162277660168379,0.21502166674853362,-0.8325159253959588
18263177,1872.0,1,217671.0,257888,1.4,0.12,9.91,-0.03,-0.01,0.0,32.21,16.343685,17.217928621267802,-81.98540455613902,10.009120840513416,0.03162277660168379,0.13675135365963315,-0.25251794894405394
18303177,1856.0,1,217961.0,259103,1.41,0.12,9.9,-0.03,-0.01,0.0,32.21,16.383685,-15.016286938878384,152.40908199823824,10.00062498046997,0.03162277660168379,-0.11767135277973946,0.41907959592905314
18343177,1781.0,1,218423.0,259946,1.4,0.13,9.9,-0.03,-0.01,0.0,32.21,16.423685,-70.75284037474862,355.65967864012805,9.999344978547345,0.03162277660168379,-0.5575965852178297,1.0014422773440024
18383864,1807.0,1,218506.875,260465,1.42,0.11,9.91,-0.03,-0.01,0.0,32.27,16.464372,-73.12697494557331,472.14943877405494,10.011823010820756,0.03162277660168379,-0.5763354852488674,1.3352139375005772
18422177,1797.0,1,218506.875,260684,1.42,0.1,9.91,-0.03,-0.01,0.0,32.27,16.502685,-56.19311106082698,492.61663444063794,10.011718134266465,0.03162277660168379,-0.4426775256812119,1.3938574600602502
18462177,1822.0,1,218506.875,260849,1.41,0.12,9.885000000000002,-0.03,-0.01,-0.0,32.27,16.542685,-62.723810380914884,454.9047520371239,9.985776134081918,0.03162277660168379,-0.49422393892828514,1.2858036913600737
18502177,1805.0,1,218506.875,260887,1.43,0.12,9.89,-0.03,-0.01,-0.0,32.27,16.582685,-51.974455329917845,405.0994806263776,9.993567931424693,0.03162277660168379,-0.4093799321166609,1.1430994046982963
18542176,1845.0,1,218506.875,260993,1.43,0.13,9.89,-0.03,-0.01,0.0,32.27,16.622684,-42.44584642500545,355.76430650192896,9.993693011094548,0.03162277660168379,-0.33417120052315896,1.0017420617636095
18582177,1833.0,1,218506.875,261143,1.43,0.12,9.89,-0.03,-0.01,-0.0,32.27,16.662685,-28.127600468757056,280.86233261611375,9.993567931424693,0.03162277660168379,-0.2211581544679195,0.7871295830004068
18622177,1877.0,1,218506.875,260394,1.42,0.12,9.9,-0.03,-0.01,0.0,32.27,16.702685,-11.322414144751043,152.01801151398655,10.002039791962437,0.03162277660168379,-0.08851583907502242,0.4179590833224785
18662177,1857.0,1,218343.0,258361,1.42,0.13,9.89,-0.03,-0.01,-0.0,32.27,16.742685,-9.794444416584836,-19.260162468897047,9.992267010043317,0.03162277660168379,-0.0764556667754327,-0.07279478562813636
18702177,1890.0,1,217991.0,257923,1.42,0.1,9.92,-0.03,-0.01,-0.0,32.27,16.782685,4.3766215553680246,-176.1970156539618,10.02161663605229,0.03162277660168379,0.035395696599230864,-0.5224572621162484
18742174,1895.0,1,218027.0,258233,1.43,0.11,9.9,-0.03,-0.01,0.0,32.27,16.822682,20.437033455072115,-256.4565458125819,10.003349439062898,0.03162277660168379,0.16215955267723772,-0.7524204502422353
18782177,1906.0,1,218197.0,258505,1.43,0.12,9.9,-0.03,-0.01,-0.0,32.27,16.862685,25.78647489420762,-240.71051424148806,10.003464399896668,0.03162277660168379,0.20438236918549882,-0.7073042177740805
18822174,1904.0,1,218241.0,258698,1.41,0.11,9.91,-0.03,-0.01,-0.0,32.27,16.902682,22.405261485046744,-165.0750663329528,10.010409582030098,0.03162277660168379,0.1776946570244058,-0.4905901565029944
18862177,1893.0,1,218365.0,258994,1.43,0.1,9.9,-0.03,-0.01,-0.0,32.27,16.942685,17.199155158812584,-88.38000434619164,10.00324447366953,0.03162277660168379,0.13660317586023293,-0.27084004168000714
18902174,1923.0,1,218381.0,259060,1.41,0.12,9.92,-0.03,-0.01,-0.0,32.27,16.982682,39.07190132446743,-47.10194602689993,10.020424142719708,0.03162277660168379,0.30924343342578975,-0.15256830657273124
18942177,1935.0,1,218346.0,259041,1.43,0.12,9.89,-0.03,-0.01,0.0,32.27,17.022685,59.77097348935879,-37.2632198205321,9.993567931424693,0.03162277660168379,0.4726199533584392,-0.12437794910311378
18982194,1909.0,1,218346.0,259153,1.41,0.11,9.9,-0.03,-0.01,-0.0,32.27,17.062702,28.802180820276593,-32.593816090227456,10.000509986995663,0.03162277660168379,0.2281851529729335,-0.11099896512020167
19022177,1872.0,1,218437.0,259447,1.43,0.13,9.925,-0.03,-0.01,-0.0,32.27,17.102685,-5.882201036648611,-14.75457323234263,10.028331117389374,0.03162277660168379,-0.04557656729445934,-0.05988517024443724
19062177,1895.0,1,218506.875,259886,1.41,0.11,9.92,-0.03,-0.01,-0.0,32.27,17.142685,22.287890902216287,14.386382295428417,10.020309376461388,0.03162277660168379,0.1767682581398301,0.023610796215367488
19102177,1920.0,1,218506.875,260253,1.41,0.11,9.9,-0.03,-0.01,-0.0,32.27,17.182685,39.906354998039795,44.793881133712645,10.000509986995663,0.03162277660168379,0.31582972561063966,0.11073571909953239
19142174,1863.0,1,218506.875,260494,1.41,0.13,9.9,-0.03,-0.01,-0.0,32.27,17.222682,-2.786818239224318,74.6216152073181,10.00074997187711,0.03162277660168379,-0.021144898798693,0.19619947410263508
19182191,1873.0,1,218506.875,260668,1.42,0.12,9.92,-0.03,-0.01,-0.0,32.27,17.262699,-4.8903661489811165,109.01472692912205,10.021836159107771,0.03162277660168379,-0.03774807474155384,0.29474415291508416
19222177,1887.0,1,218506.875,260850,1.41,0.11,9.885000000000002,-0.03,-0.01,-0.0,32.27,17.302685,24.55337507564475,142.29998003836954,9.985660969610375,0.03162277660168379,0.19464958718051178,0.3901145457825144
19262177,1863.0,1,218506.875,260971,1.39,0.11,9.89,-0.03,-0.01,-0.0,32.27,17.342685,-6.921501604646978,146.63032428561834,9.987807567229156,0.03162277660168379,-0.05377970358051955,0.40252204140094483
19302177,1839.0,1,218506.875,260637,1.41,0.11,9.91,-0.03,-0.01,0.0,32.27,17.382685,-23.759851351751422,87.1738167169997,10.010409582030098,0.03162277660168379,-0.18668377585854243,0.23216460212495732
19342177,1869.0,1,218495.0,258680,1.42,0.13,9.89,-0.03,-0.01,0.0,32.27,17.422685,11.177513895839631,-43.72781712707584,9.992267010043317,0.03162277660168379,0.08907472695245898,-0.1429006018475966
19382177,1869.0,1,218037.0,257894,1.41,0.12,9.9,-0.03,-0.01,0.0,32.27,17.462685,5.045187192719469,-206.2234932486222,10.00062498046997,0.03162277660168379,0.0406726445854454,-0.6084904659266248
19422863,1840.0,1,217874.0,257954,1.4,0.14,9.9,-0.03,-0.01,-0.0,32.17,17.503371,-6.2731653150919655,-332.0237526649397,9.999479986479297,0.03162277660168379,-0.04866242460831493,-0.9689389841932804
19463174,1872.0,1,217950.0,258249,1.41,0.13,9.89,-0.03,-0.01,-0.0,32.17,17.543682,11.32912720162702,-370.73608207031475,9.990850814620345,0.03162277660168379,0.09027140157041803,-1.0798592782972858
19503177,1847.0,1,218015.0,258400,1.42,0.12,9.92,-0.03,-0.01,-0.0,32.17,17.583685,5.959545339489496,-322.551096348114,10.021836159107771,0.03162277660168379,0.04788961792615059,-0.9417975065103956
19543177,1843.0,1,218017.0,258629,1.42,0.13,9.9,-0.03,-0.01,-0.0,32.17,17.623685,-6.40253955090706,-229.62332203165695,10.002164765689475,0.03162277660168379,-0.04968356759714257,-0.6755366997871274
19583177,1825.0,1,218130.0,258817,1.42,0.12,9.91,-0.03,-0.01,0.0,32.17,17.663685,-17.95717628874718,-138.57756501082213,10.011937874357791,0.03162277660168379,-0.14088361387342785,-0.4146683330215089
19623177,1805.0,1,218098.0,258743,1.41,0.12,9.92,-0.03,-0.01,-0.0,32.17,17.703685,-28.650061935883855,-69.98947114947475,10.020424142719708,0.03162277660168379,-0.22528191110870566,-0.21814666511904815
19663176,1814.0,1,218114.0,258750,1.41,0.11,9.9,-0.03,-0.01,-0.0,32.17,17.743684,-32.029822299975194,-17.446262764111008,10.000509986995663,0.03162277660168379,-0.2519581544732809,-0.06759751923212091
19703174,1809.0,1,218134.0,258913,1.42,0.13,9.91,-0.03,-0.01,-0.0,32.17,17.783682,-12.437737203986844,32.26781082207745,10.012062724533841,0.03162277660168379,-0.09731901626900548,0.07484546335219637
19741177,1875.0,1,218210.0,259101,1.43,0.11,9.91,-0.03,-0.01,-0.0,32.17,17.821685,31.46106673693007,83.721649792318,10.013246226873681,0.03162277660168379,0.24917157808901108,0.22227329936784018
19781177,1854.0,1,218304.0,259176,1.43,0.13,9.9,-0.03,-0.01,-0.0,32.17,17.861685,36.43877018738233,137.10732252127823,10.003589355826238,0.03162277660168379,0.28846028922124267,0.3752363116947158
19821177,1871.0,1,218271.0,259179,1.43,0.13,9.91,-0.03,-0.01,0.0,32.17,17.901685,36.16145656540341,201.19552460537622,10.013485906516273,0.03162277660168379,0.28627146963899686,0.5588646888281794
19861177,1878.0,1,218316.0,259293,1.4,0.1,9.9,-0.03,-0.01,-0.0,32.17,17.941685,58.0478767654656,291.3794466514628,9.998999949995,0.03162277660168379,0.4590196555279642,0.817263687556882
19901177,1872.0,1,218348.0,259369,1.41,0.11,9.9,-0.03,-0.01,-0.0,32.17,17.981685,47.412868169728654,405.8211908837395,10.000509986995663,0.03162277660168379,0.37507817834560103,1.14516728114061
19941177,1863.0,1,218405.0,259513,1.43,0.12,9.91,-0.03,-0.01,-0.0,32.17,18.021685,38.76547301348089,502.6778060484101,10.013361074084964,0.03162277660168379,0.30682481337079354,1.4226851780226317
19981177,1847.0,1,218498.0,259646,1.4,0.11,9.9,-0.03,-0.01,-0.0,32.17,18.061685,30.41160136747825,510.8356557777768,9.999104959945166,0.03162277660168379,0.24088821164219573,1.4460594131858613
20021181,1834.0,1,218483.0,259193,1.42,0.13,9.92,-0.03,-0.01,0.0,32.17,18.101689,5.50151139016416,378.88113692519147,10.02196088597436,0.03162277660168379,0.04427438377190155,1.0679774360923027
20061176,1813.0,1,218040.0,257676,1.42,0.13,9.9,-0.03,-0.01,-0.0,32.17,18.141684,0.6636260560541326,125.04211315424416,10.002164765689475,0.03162277660168379,0.006089248543438131,0.3406665352959851
20101174,1817.0,1,217592.0,256864,1.4,0.14,9.9,-0.03,-0.01,-0.0,32.17,18.181682,-14.453726300567803,-160.29313309899626,9.999479986479297,0.03162277660168379,-0.1132310958152672,-0.47688874796356073
20141176,1789.0,1,217449.0,256735,1.4,0.12,9.91,-0.03,-0.01,-0.0,32.17,18.221684,-25.02933652670819,-369.0824524436422,10.009120840513416,0.03162277660168379,-0.19670374527254905,-1.075121224882599
20181177,1797.0,1,217465.0,256870,1.41,0.11,9.92,-0.03,-0.01,-0.0,32.17,18.261685,-33.946373902530866,-443.9047523884502,10.020309376461388,0.03162277660168379,-0.2670853799161674,-1.2895054183138497
20221176,1760.0,1,217477.0,257001,1.4,0.13,9.92,-0.03,-0.01,-0.0,32.17,18.301684,-62.741149313453576,-404.89576074707907,10.019146670250915,0.03162277660168379,-0.4943607940701462,-1.177735114330003
20261177,1797.0,1,217493.0,257263,1.41,0.11,9.885000000000002,-0.03,-0.01,-0.0,32.17,18.341685,-31.577023858677567,-319.8088938585865,9.985660969610375,0.03162277660168379,-0.24838424386604077,-0.9339404255415378
20301177,1808.0,1,217586.0,257429,1.4,0.12,9.9,-0.03,-0.01,-0.0,32.17,18.381685,-25.629485361537096,-249.41485864997685,9.999219969577627,0.03162277660168379,-0.20144068359011716,-0.7322442938842532
20341174,1756.0,1,217578.0,257390,1.44,0.12,9.9,-0.03,-0.01,-0.0,32.17,18.421682,-75.1061920818069,-212.86098022585026,10.004898800087885,0.03162277660168379,-0.591957325944576,-0.627508489872335
20381177,1792.0,1,217547.0,257519,1.43,0.11,9.9,-0.03,-0.01,-0.0,32.17,18.461685,-48.159856426649945,-192.22366504913057,10.003349439062898,0.03162277660168379,-0.3792715345619205,-0.5683775332990793
20421177,1799.0,1,217558.0,257755,1.41,0.12,9.92,-0.03,-0.01,0.0,32.17,18.501685,-42.40716124301552,-160.79822116091424,10.020424142719708,0.03162277660168379,-0.33386586073033503,-0.4783359488227419
20461863,1770.0,1,217733.0,258079,1.41,0.13,9.89,-0.03,-0.01,-0.0,31.99,18.542371,-73.89003693408235,-104.70148402749912,9.990850814620345,0.03162277660168379,-0.5823582871977849,-0.31760507375818037
20502177,1795.0,1,217788.0,258431,1.41,0.14,9.89,-0.03,-0.01,-0.0,31.99,18.582685,-58.25528724918385,-21.73768853032888,9.990985937333713,0.03162277660168379,-0.45895415713878857,-0.07989350388160837
20542176,1793.0,1,217860.0,258803,1.41,0.14,9.91,-0.03,-0.01,-0.0,31.99,18.622684,-58.85926244078481,90.72996084884088,10.010784185067621,0.03162277660168379,-0.4637212966580559,0.2423538250169616
20582177,1809.0,1,218015.0,259034,1.41,0.12,9.9,-0.03,-0.01,-0.0,31.99,18.662685,-51.82686666482611,235.10136918462527,10.00062498046997,0.03162277660168379,-0.40821502374337204,0.6560132280750278
20622207,1837.0,1,218067.0,259290,1.42,0.11,9.91,-0.03,-0.01,0.0,31.99,18.702715,-27.989772325003322,393.7064933626436,10.011823010820756,0.03162277660168379,-0.2200702852969788,1.1104557090739997
20662177,1858.0,1,218194.0,259652,1.41,0.13,9.9,-0.03,-0.01,-0.0,31.99,18.742685,-8.780663006020392,512.3691370527695,10.00074997187711,0.03162277660168379,-0.0684539516497006,1.4504532121805958
20702177,1904.0,1,218328.0,259927,1.4,0.11,9.9,-0.03,-0.01,-0.0,31.99,18.782685,26.92223824192752,517.1000242810456,9.999104959945166,0.03162277660168379,0.21334688033553312,1.4640083614261592
20742174,1926.0,1,218324.0,259173,1.41,0.11,9.91,-0.03,-0.01,0.0,31.99,18.822682,49.51813090904618,364.87326369806135,10.010409582030098,0.03162277660168379,0.39169488933407537,1.0278414524924844
20782177,1937.0,1,217816.0,257754,1.4,0.12,9.9,-0.03,-0.01,-0.0,31.99,18.862685,52.75526235422722,89.13661135135695,9.999219969577627,0.03162277660168379,0.41724537130085987,0.23778848891897808
20822209,1919.0,1,217424.0,257153,1.4,0.12,9.92,-0.03,-0.01,-0.0,31.99,18.902717,29.739899493588467,-206.08545934715713,10.019021908350137,0.03162277660168379,0.23558650953138865,-0.6080949650311219
20862177,1914.0,1,217377.0,257207,1.41,0.13,9.91,-0.03,-0.01,-0.0,31.99,18.942685,24.394978777496167,-407.25101599219965,10.010649329588965,0.03162277660168379,0.1933993748156492,-1.1844834967831266
20902177,1942.0,1,217351.0,257378,1.4,0.13,9.91,-0.03,-0.01,-0.0,31.99,18.982685,42.52860388281594,-460.08400187266517,10.009245725827697,0.03162277660168379,0.33652697685838645,-1.3358629260829902
20942177,1906.0,1,217442.0,257565,1.42,0.12,9.91,-0.03,-0.01,-0.0,31.99,19.022685,8.71913974400999,-392.37792321708247,10.011937874357791,0.03162277660168379,0.06967092902283262,-1.141868447516081
20982176,1910.0,1,217542.0,257855,1.38,0.13,9.89,-0.03,-0.01,-0.0,31.99,19.062684,5.1228255275842365,-279.6517505868147,9.986661103692265,0.03162277660168379,0.041285439249019056,-0.8188803862595009
21022177,1947.0,1,217640.0,258016,1.41,0.12,9.9,-0.03,-0.01,-0.0,31.99,19.102685,41.549140314915846,-188.23235638665008,10.00062498046997,0.03162277660168379,0.3287961303813277,-0.5569414575706905
21062174,1952.0,1,217636.0,258019,1.43,0.11,9.92,-0.03,-0.01,0.0,31.99,19.142682,43.029302500391296,-139.5177107415653,10.023143219569398,0.03162277660168379,0.34047896064891103,-0.41736208053183516
21102177,1968.0,1,217657.0,258071,1.42,0.12,9.9,-0.03,-0.01,-0.0,31.99,19.182685,58.07357064476706,-112.8489082340808,10.002039791962437,0.03162277660168379,0.4592224557573852,-0.3409494372481918
21142174,1971.0,1,217784.0,258399,1.41,0.12,9.91,-0.03,-0.01,0.0,31.99,19.222682,57.56911607446497,-72.20276483879697,10.010524461785206,0.03162277660168379,0.45524082646001673,-0.22448829298616566
21182177,1962.0,1,217901.0,258737,1.41,0.13,9.9,-0.03,-0.01,-0.0,31.99,19.262685,50.383853748726075,8.885119636473458,10.00074997187711,0.03162277660168379,0.3985279871486245,0.007848332900774411
21222175,1977.0,1,218002.0,259011,1.41,0.11,9.9,-0.03,-0.01,-0.0,31.99,19.302683,62.04372675292922,136.1517665967633,10.000509986995663,0.03162277660168379,0.49055865688629646,0.3724984102093739
21262176,1941.0,1,218152.0,259223,1.43,0.13,9.885000000000002,-0.03,-0.01,-0.0,31.99,19.342684,27.33346500488345,291.71951233461755,9.988744916154383,0.03162277660168379,0.21659266820948736,0.8182380589307979
21302177,1930.0,1,218242.0,259435,1.41,0.12,9.885000000000002,-0.03,-0.01,-0.0,31.99,19.382685,17.47757587443153,433.06179771312634,9.985776134081918,0.03162277660168379,0.13880073366536658,1.2232182836893648
21342176,1949.0,1,218268.0,259731,1.42,0.11,9.91,-0.03,-0.01,0.0,31.99,19.422684,35.015966379831056,500.13692508789103,10.011823010820756,0.03162277660168379,0.27723018514832076,1.4154049324845033
21382177,1921.0,1,218386.0,259950,1.4,0.11,9.91,-0.03,-0.01,-0.0,31.99,19.462685,10.21478825219985,441.4895762972973,10.00900594464805,0.03162277660168379,0.08147599189540804,1.2473659310554228
21422177,1909.0,1,218300.0,258974,1.44,0.11,9.92,-0.03,-0.01,-0.0,31.99,19.502685,1.0888735962694602,252.47413027864818,10.02457480395054,0.03162277660168379,0.009445701561083054,0.7057904385799604
21462863,1907.0,1,217808.0,257645,1.42,0.11,9.91,-0.03,-0.01,-0.0,32.03,19.543371,-5.664212960007879,-5.092293871649192,10.011823010820756,0.03162277660168379,-0.04385600063984469,-0.03220037615260017
21501176,1873.0,1,217509.0,257268,1.42,0.13,9.885000000000002,-0.03,-0.01,-0.0,32.03,19.581684,-23.474981221355034,-229.0857574671583,9.987318208608357,0.03162277660168379,-0.18443531321412193,-0.6739964458031911
21541177,1894.0,1,217543.0,257554,1.42,0.12,9.92,-0.03,-0.01,-0.0,32.03,19.621685,-20.303618511106748,-337.61058588841615,10.021836159107771,0.03162277660168379,-0.15940393987926504,-0.9849466281087095
21581176,1863.0,1,217653.0,257674,1.42,0.12,9.9,-0.03,-0.01,-0.0,32.03,19.661684,-23.05401218518292,-316.9955409380632,10.002039791962437,0.03162277660168379,-0.18111263016913712,-0.9258794811820522
21621177,1889.0,1,217652.0,257931,1.43,0.12,9.89,-0.03,-0.01,-0.0,32.03,19.701685,-21.006952032332904,-219.67389661738207,9.993567931424693,0.03162277660168379,-0.16495530866210384,-0.6470291620060502
21661176,1877.0,1,217786.0,258223,1.43,0.13,9.9,-0.03,-0.01,-0.0,32.03,19.741684,-4.368454547815561,-119.1133814385447,10.003589355826238,0.03162277660168379,-0.03362865815941676,-0.3588986854830273
21701174,1886.0,1,217812.0,258235,1.42,0.13,9.9,-0.03,-0.01,-0.0,32.03,19.781682,-12.44661421163753,-61.69528117966511,10.002164765689475,0.03162277660168379,-0.09738908195145884,-0.19438178181347163
21741176,1856.0,1,217764.0,258219,1.41,0.12,9.91,-0.03,-0.01,-0.0,32.03,19.821684,-25.587178991605608,-48.714377080407175,10.010524461785206,0.03162277660168379,-0.20110676198071703,-0.15718831599672167
21781177,1872.0,1,217776.0,258382,1.43,0.11,9.9,-0.03,-0.01,-0.0,32.03,19.861685,-11.95462031989938,-50.656264337174335,10.003349439062898,0.03162277660168379,-0.09350580403349322,-0.16275229803928837
21821176,1859.0,1,217855.0,258674,1.42,0.12,9.9,-0.03,-0.01,-0.0,32.03,19.901684,-22.03576303217628,-32.56884972134597,10.002039791962437,0.03162277660168379,-0.17307565142355064,-0.11092743036572988
21861174,1845.0,1,217947.0,258934,1.41,0.11,9.9,-0.03,-0.01,-0.0,32.03,19.941682,-29.014195604077084,28.883771099182454,10.000509986995663,0.03162277660168379,-0.22815599604477468,0.06514936169443787
21901177,1877.0,1,217992.0,259121,1.4,0.12,9.925,-0.03,-0.01,0.0,32.03,19.981685,3.451712057639293,138.10149891635078,10.023972515924013,0.03162277660168379,0.028095442085993457,0.378084870276091
21941177,1882.0,1,218039.0,259301,1.41,0.13,9.91,-0.03,-0.01,-0.0,32.03,20.021685,8.958473981867366,274.2771765970944,10.010649329588965,0.03162277660168379,0.07155997963197987,0.7682615000519039
21981177,1871.0,1,218135.0,259480,1.42,0.12,9.92,-0.03,-0.01,0.0,32.03,20.061685,11.697137850982179,387.371909470506,10.021836159107771,0.03162277660168379,0.09317608728342211,1.0923055765675111
22021184,1893.0,1,218190.0,259639,1.42,0.11,9.89,-0.03,-0.01,-0.0,32.03,20.101692,15.80231580168347,411.28910637335343,9.992026821421168,0.03162277660168379,0.12557800761816107,1.1608341966571847
22061177,1840.0,1,218264.0,259503,1.39,0.13,9.89,-0.03,-0.01,0.0,32.03,20.141685,-5.811274254340397,301.32433209923255,9.988047857314262,0.03162277660168379,-0.04501674650774837,0.8457582172232911
22101177,1863.0,1,217879.0,258056,1.43,0.14,9.92,-0.03,-0.01,0.0,32.03,20.181685,-15.537857806018865,74.19666926875142,10.023517346720162,0.03162277660168379,-0.12178807996890298,0.1949819000323552
22141177,1797.0,1,217469.0,257162,1.42,0.13,9.9,-0.03,-0.01,-0.0,32.03,20.221685,-42.93043148938984,-187.2002849179101,10.002164765689475,0.03162277660168379,-0.3379960010166199,-0.5539843203328291
22181174,1817.0,1,217307.0,257052,1.4,0.12,9.9,-0.03,-0.01,0.0,32.03,20.261682,-56.56199295750205,-378.43021966385476,9.999219969577627,0.03162277660168379,-0.44558908809641756,-1.10190486475155
22221177,1817.0,1,217337.0,257176,1.41,0.11,9.89,-0.03,-0.01,-0.0,32.03,20.301685,-25.13464230307132,-436.6482704779023,9.990610591950825,0.03162277660168379,-0.1975349173721466,-1.268713822456882
22261227,1827.0,1,217392.0,257302,1.4,0.12,9.89,-0.03,-0.01,-0.0,32.03,20.341735,-37.2713724813361,-373.0779342226644,9.98931929612824,0.03162277660168379,-0.2933293918341313,-1.0865692576107666
22301177,1794.0,1,217448.0,257526,1.42,0.13,9.9,-0.03,-0.01,-0.0,32.03,20.381685,-55.44266115910879,-253.39678878446787,10.002164765689475,0.03162277660168379,-0.4367542701676399,-0.743653497835644
22341174,1833.0,1,217554.0,257721,1.41,0.13,9.9,-0.03,-0.01,-0.0,32.03,20.421682,-20.79893080099267,-147.70230108183463,10.00074997187711,0.03162277660168379,-0.16331340971234723,-0.440812934086967
22381177,1849.0,1,217583.0,257635,1.41,0.12,9.92,-0.03,-0.01,-0.0,32.03,20.461685,-9.549955959157986,-89.68270896898767,10.020424142719708,0.03162277660168379,-0.07452593422414226,-0.27457260911034936
22421177,1810.0,1,217538.0,257614,1.42,0.13,9.91,-0.03,-0.01,-0.0,32.03,20.501685,-35.60979482175875,-68.71081910030783,10.012062724533841,0.03162277660168379,-0.2802146602434069,-0.21448301419623408
22461227,1798.0,1,217568.0,257827,1.41,0.11,9.9,-0.03,-0.01,-0.0,32.03,20.541735,-67.3408336837545,-49.87220406207353,10.000509986995663,0.03162277660168379,-0.530665823552723,-0.16050577354320952
22501861,1782.0,1,217658.0,258145,1.41,0.12,9.91,-0.03,-0.01,0.0,32.03,20.582369,-61.27447971568034,-0.23968363585292282,10.010524461785206,0.03162277660168379,-0.48278445997814573,-0.018296460712887697
22540177,1879.0,1,217750.0,258423,1.4,0.11,9.89,-0.03,-0.01,-0.0,32.03,20.620685,11.813501765096069,95.34962592736501,9.989204172505437,0.03162277660168379,0.09409454059293396,0.25559029559475
22580177,1904.0,1,217838.0,258684,1.43,0.12,9.9,-0.03,-0.01,-0.0,32.03,20.660685,57.33250119698681,229.44268849680694,10.003464399896668,0.03162277660168379,0.45337323959724707,0.6397997235979163
22620176,1936.0,1,217900.0,258914,1.43,0.12,9.91,-0.03,-0.01,0.0,32.03,20.700684,69.7592694454195,370.4893819445409,10.013361074084964,0.03162277660168379,0.5514569669385172,1.043933005162934
22660177,1934.0,1,217949.0,259112,1.41,0.12,9.89,-0.03,-0.01,0.0,32.03,20.740685,82.43602064574887,465.35805852768175,9.99072569936739,0.03162277660168379,0.6515137945423509,1.3157549716912178
22701176,1903.0,1,218021.0,259171,1.44,0.12,9.91,-0.03,-0.01,-0.0,32.03,20.781684,36.964034873499166,456.31442799481147,10.014794056794178,0.03162277660168379,0.2926061714993305,1.2898427578337213
22741177,1866.0,1,217986.0,258825,1.41,0.14,9.9,-0.03,-0.01,-0.0,32.03,20.821685,10.311292300286045,314.68361385994893,10.000884960842216,0.03162277660168379,0.08223769248807893,0.8840358276042153
22781177,1884.0,1,217609.0,257388,1.43,0.13,9.91,-0.03,-0.01,-0.0,32.03,20.861685,18.053198756940912,70.34054578696075,10.013485906516273,0.03162277660168379,0.14334409013027585,0.18393316291755382
22821177,1846.0,1,217208.0,256596,1.42,0.13,9.9,-0.03,-0.01,-0.0,32.03,20.901685,-14.64767271241811,-192.93212320442848,10.002164765689475,0.03162277660168379,-0.11476190306928857,-0.5704074392270628
22861176,1853.0,1,217069.0,256548,1.41,0.11,9.9,-0.03,-0.01,-0.0,32.03,20.941684,-11.118444317323634,-381.801387487032,10.000509986995663,0.03162277660168379,-0.08690591761038424,-1.1115640852677109
22901177,1880.0,1,217098.0,256690,1.41,0.1,9.885000000000002,-0.03,-0.01,0.0,32.03,20.981685,13.962159406550597,-446.0679298702974,9.985555818280725,0.03162277660168379,0.11105376490942051,-1.2957034509864156
22941177,1876.0,1,217094.0,256726,1.41,0.11,9.91,-0.03,-0.01,-0.0,32.03,21.021685,13.390046726353093,-399.40603981375773,10.010409582030098,0.03162277660168379,0.10653811425825038,-1.1620057208828505
22981177,1904.0,1,217202.0,257027,1.45,0.12,9.925,-0.03,-0.01,-0.0,32.03,21.061685,35.578666841770975,-297.0304687513247,10.031077958026247,0.03162277660168379,0.28167154573221054,-0.8686746652286816
23021184,1903.0,1,217259.0,257290,1.41,0.11,9.9,-0.03,-0.01,-0.0,32.03,21.101692,39.28894958938949,-194.45352021762292,10.000509986995663,0.03162277660168379,0.310956582203566,-0.5747666138555225
23061176,1887.0,1,217294.0,257369,1.4,0.12,9.92,-0.03,-0.01,-0.0,32.03,21.141684,19.545388684631465,-119.66143035595121,10.019021908350137,0.03162277660168379,0.15512185463694472,-0.3604689797028753
23101176,1882.0,1,217352.0,257463,1.41,0.11,9.89,-0.03,-0.01,-0.0,32.03,21.181684,16.912426234149944,-71.44319064484466,9.990610591950825,0.03162277660168379,0.1343400418655185,-0.22231192710270878
23141176,1887.0,1,217413.0,257703,1.44,0.11,9.9,-0.03,-0.01,-0.0,32.03,21.221684,20.19995286234897,-33.35214541877172,10.004783855736216,0.03162277660168379,0.1602882899523135,-0.11317176415972792
23181176,1885.0,1,217452.0,257947,1.41,0.12,9.9,-0.03,-0.01,-0.0,32.03,21.261684,21.828054224743855,13.518505896784541,10.00062498046997,0.03162277660168379,0.17313879516176178,0.021124118021052015
23221177,1874.0,1,217542.0,258162,1.42,0.11,9.9,-0.03,-0.01,-0.0,32.03,21.301685,5.668240582124183,84.91842429670082,10.001924814754409,0.03162277660168379,0.0455903671617181,0.22570235109480463
23261176,1857.0,1,217607.0,258387,1.41,0.11,9.89,-0.03,-0.01,-0.0,32.03,21.341684,-1.5864279189856005,188.64580041757878,9.990610591950825,0.03162277660168379,-0.011670290878146642,0.5229066589390928
23301177,1877.0,1,217715.0,258516,1.41,0.12,9.925,-0.03,-0.01,-0.0,32.03,21.381685,7.632206721267452,314.58845776080153,10.025374057859388,0.03162277660168379,0.061091832663298616,0.883763182101727
23341176,1857.0,1,217779.0,258700,1.42,0.11,9.91,-0.03,-0.01,0.0,32.03,21.421684,1.6806844135080776,425.67581938483437,10.011823010820756,0.03162277660168379,0.014116828412021786,1.2020556489163148
23381177,1872.0,1,217847.0,258918,1.43,0.13,9.9,-0.03,-0.01,0.0,32.03,21.461685,5.514190117832495,464.9529633863101,10.003589355826238,0.03162277660168379,0.044374456199647354,1.3145942750110846
23421176,1869.0,1,217845.0,258953,1.42,0.11,9.89,-0.03,-0.01,0.0,32.03,21.501684,13.391420311878655,385.90936014873836,9.992026821421168,0.03162277660168379,0.10654895588541166,1.0881150149711438
23461176,1858.0,1,217695.0,257811,1.42,0.12,9.9,-0.03,-0.01,-0.0,32.03,21.541684,-1.8210677322022844,190.08933749404386,10.002039791962437,0.03162277660168379,-0.013522288678608918,0.5270427458016237
23501177,1827.0,1,217276.0,256588,1.41,0.13,9.92,-0.03,-0.01,-0.0,32.03,21.581685,-30.97628915209982,-60.02916198818332,10.020548887161821,0.03162277660168379,-0.24364268129832803,-0.18960794274023235
23541863,1808.0,1,217016.0,256299,1.44,0.11,9.9,-0.03,-0.01,0.0,31.97,21.622371,-44.266898535373585,-271.40919107489526,10.004783855736216,0.03162277660168379,-0.3485446542720949,-0.7952634368463526
23580177,1853.0,1,217058.0,256348,1.42,0.13,9.9,-0.03,-0.01,-0.0,31.97,21.660685,-6.9223478702417784,-375.69498203661846,10.002164765689475,0.03162277660168379,-0.053786383103481536,-1.0940677398169996
23620174,1872.0,1,217025.0,256404,1.41,0.12,9.9,-0.03,-0.01,-0.0,31.97,21.700682,25.68709854205309,-366.4733506158617,10.00062498046997,0.03162277660168379,0.2035979976711975,-1.067645509870613
23660176,1863.0,1,217138.0,256614,1.42,0.12,9.9,-0.03,-0.01,0.0,31.97,21.740684,2.8851967876859845,-290.58443873763974,10.002039791962437,0.03162277660168379,0.023623971454055457,-0.8502052123204331
23701177,1831.0,1,217197.0,256931,1.41,0.1,9.91,-0.03,-0.01,0.0,31.97,21.781685,-12.379649478462177,-205.1819404047679,10.010304690667512,0.03162277660168379,-0.09686053337801293,-0.6055061622295927
23741177,1840.0,1,217248.0,257100,1.43,0.13,9.925,-0.03,-0.01,-0.0,31.97,21.821685,-17.878635374716012,-138.30079697851173,10.028331117389374,0.03162277660168379,-0.14026369520729043,-0.4138753249020286
23781177,1820.0,1,217299.0,257169,1.41,0.13,9.91,-0.03,-0.01,-0.0,31.97,21.861685,-24.29325101998662,-82.28597449623952,10.010649329588965,0.03162277660168379,-0.19089386705660621,-0.2533791553521122
23821177,1882.0,1,217300.0,257434,1.42,0.13,9.91,-0.03,-0.01,-0.0,31.97,21.901685,28.3173559967371,-18.28780739576614,10.012062724533841,0.03162277660168379,0.2243584600750174,-0.07000875047236434
23861177,1918.0,1,217435.0,257689,1.41,0.12,9.9,-0.03,-0.01,-0.0,31.97,21.941685,70.14866516992969,55.92897158881408,10.00062498046997,0.03162277660168379,0.554530443751407,0.14264047727673124
23901197,1898.0,1,217534.0,257939,1.42,0.13,9.89,-0.03,-0.01,-0.0,31.97,21.981705,47.84649282077866,122.29650086749136,9.992267010043317,0.03162277660168379,0.3785007513904799,0.332799684423924
23941177,1891.0,1,217600.0,258190,1.43,0.1,9.91,-0.03,-0.01,-0.0,31.97,22.021685,39.3287854310102,164.56761167690803,10.013141365226,0.03162277660168379,0.31127100408299785,0.4539167578499548
23981177,1878.0,1,217627.0,258412,1.41,0.12,9.885000000000002,-0.03,-0.01,-0.0,31.97,22.061685,28.971591816800423,190.24037747500836,9.985776134081918,0.03162277660168379,0.22952230368335672,0.5274755122966236
24021185,1856.0,1,217522.0,258580,1.43,0.11,9.9,-0.03,-0.01,0.0,31.97,22.101693,0.17185529764849442,224.41735361852912,10.003349439062898,0.03162277660168379,0.0022077318033193304,0.6254009098031489
24061177,1815.0,1,217572.0,258852,1.43,0.12,9.91,-0.03,-0.01,-0.0,31.97,22.141685,-34.32720867217501,276.84923566623894,10.013361074084964,0.03162277660168379,-0.2700912856320451,0.7756310784984742
24101198,1781.0,1,217678.0,259062,1.43,0.13,9.92,-0.03,-0.01,-0.0,31.97,22.181706,-80.23821719635441,315.9753858021355,10.023382662554594,0.03162277660168379,-0.632464088602463,0.8877370702301045
24141176,1765.0,1,217738.0,259249,1.41,0.12,9.91,-0.03,-0.01,-0.0,31.97,22.221684,-86.83827017353227,283.39642061015815,10.010524461785206,0.03162277660168379,-0.6845579060544057,0.7943903650277938
24181177,1776.0,1,217645.0,258250,1.44,0.11,9.91,-0.03,-0.01,0.0,31.97,22.261685,-88.77092786446559,143.5062692832678,10.01467922601618,0.03162277660168379,-0.6998122558750376,0.3935708595686861
24221177,1763.0,1,217206.0,257034,1.42,0.12,9.9,-0.03,-0.01,-0.0,31.97,22.301685,-98.29933541605065,-76.10022897784023,10.002039791962437,0.03162277660168379,-0.7750193981989513,-0.235655481197332
24261174,1793.0,1,216961.0,256603,1.41,0.1,9.9,-0.03,-0.01,-0.0,31.97,22.341682,-68.71541707499478,-293.7121987936239,10.000404991799082,0.03162277660168379,-0.5415153268072199,-0.8591670100377348
24301204,1838.0,1,216967.0,256693,1.43,0.12,9.9,-0.03,-0.01,-0.0,31.97,22.381712,-41.597487399421034,-426.51386309958565,10.003464399896668,0.03162277660168379,-0.32747515423908813,-1.2396762660959204
24341174,1833.0,1,216972.0,256804,1.43,0.1,9.9,-0.03,-0.01,-0.0,31.97,22.421682,-21.28736840664102,-442.2742142848149,10.00324447366953,0.03162277660168379,-0.16716861808011232,-1.2848335277616396
24381177,1866.0,1,216961.0,257004,1.42,0.12,9.9,-0.03,-0.01,-0.0,31.97,22.461685,-33.42962962708382,-369.9815746034964,10.002039791962437,0.03162277660168379,-0.2630067487222121,-1.0776974298265622
24421174,1814.0,1,217089.0,257339,1.43,0.11,9.92,-0.03,-0.01,-0.0,31.97,22.501682,-38.50307763053516,-268.40911106182006,10.023143219569398,0.03162277660168379,-0.30305116579850183,-0.7866674736868832
24459176,1951.0,1,217213.0,257421,1.4,0.11,9.9,-0.03,-0.01,0.0,31.97,22.539684,40.87714435085875,-182.90940546422652,9.999104959945166,0.03162277660168379,0.3234921070346846,-0.5416899010023991
24499174,1939.0,1,217192.0,257399,1.42,0.12,9.925,-0.03,-0.01,-0.0,31.97,22.579682,75.62087994380542,-122.26069566684188,10.02678537717847,0.03162277660168379,0.5977223027370603,-0.36791651068762404
24539176,1931.0,1,217208.0,257555,1.43,0.11,9.91,-0.03,-0.01,-0.0,31.97,22.619684,21.49374448308945,-66.25348684645834,10.013246226873681,0.03162277660168379,0.1705001086672183,-0.20744215614158035
24579864,1857.0,1,217346.0,257829,1.42,0.11,9.9,-0.03,-0.01,-0.0,32.05,22.660372,-25.632557274554408,9.565793099849447,10.001924814754409,0.03162277660168379,-0.20146493001306337,0.009798628889317372
24620177,1868.0,1,217477.0,257905,1.41,0.13,9.91,-0.03,-0.01,-0.0,32.05,22.700685,-37.62806072702468,114.85878043583187,10.010649329588965,0.03162277660168379,-0.29614471050239144,0.31148879586684086
24660177,1875.0,1,217587.0,258180,1.41,0.11,9.91,-0.03,-0.01,-0.0,32.05,22.740685,-24.86015059235833,242.25480326955133,10.010409582030098,0.03162277660168379,-0.1953683709642012,0.6765095667025723
24700176,1922.0,1,217728.0,258273,1.41,0.13,9.885000000000002,-0.03,-0.01,-0.0,32.05,22.780684,14.838210807803382,373.80205318473196,9.985901311348918,0.03162277660168379,0.11796838543340535,1.0534246186585778
24739177,2000.0,1,217707.0,258491,1.41,0.11,9.91,-0.03,-0.01,-0.0,32.05,22.819685,90.9260191601847,482.91579453835107,10.010409582030098,0.03162277660168379,0.7185248373790708,1.366062180583523
24779177,2047.0,1,217782.0,258667,1.41,0.1,9.89,-0.03,-0.01,-0.0,32.05,22.859685,131.85475493483918,532.4405771377844,9.990505492716572,0.03162277660168379,1.041572864017084,1.507962798183748
24819176,2019.0,1,217760.0,258797,1.4,0.12,9.925,-0.03,-0.01,-0.0,32.05,22.899684,106.16864065882422,483.1766038941942,10.023972515924013,0.03162277660168379,0.838833923470485,1.3668094631908874
24859177,2000.0,1,217777.0,258167,1.42,0.12,9.925,-0.03,-0.01,-0.0,32.05,22.939685,76.29501560605486,319.5946668204587,10.02678537717847,0.03162277660168379,0.6030432145916319,0.8981071957473179
24899177,1995.0,1,217322.0,256904,1.41,0.12,9.9,-0.03,-0.01,0.0,32.05,22.979685,77.72028181075962,74.86077505210913,10.00062498046997,0.03162277660168379,0.6142927542157912,0.19688472556462555
24939177,2015.0,1,217018.0,256336,1.42,0.12,9.9,-0.03,-0.01,-0.0,32.05,23.019685,87.35396093120492,-173.85865031738595,10.002039791962437,0.03162277660168379,0.690330798641559,-0.5157572733829536
24979177,1970.0,1,216876.0,256372,1.42,0.11,9.91,-0.03,-0.01,-0.0,32.05,23.059685,45.641973983042966,-346.1489869787917,10.011823010820756,0.03162277660168379,0.3611006180431446,-1.009411236017086
25019176,1921.0,1,216861.0,256458,1.42,0.12,9.89,-0.03,-0.01,-0.0,32.05,23.099684,-7.0979350917422,-405.50024426662696,9.992141912523062,0.03162277660168379,-0.05517228238267914,-1.1794671074908167
25059177,1894.0,1,216899.0,256619,1.41,0.12,9.89,-0.03,-0.01,-0.0,32.05,23.139685,-36.027255278032,-374.24720143372,9.99072569936739,0.03162277660168379,-0.28350965028026004,-1.0899194942131254
25099176,1853.0,1,216970.0,256929,1.41,0.1,9.89,-0.03,-0.01,0.0,32.05,23.179684,-76.9746537116968,-306.4870470048581,9.990505492716572,0.03162277660168379,-0.6067049801528099,-0.8957700753269907
25139177,1854.0,1,216998.0,257039,1.41,0.12,9.91,-0.03,-0.01,-0.0,32.05,23.219685,-76.10203365640508,-245.36983990555103,10.010524461785206,0.03162277660168379,-0.5998174430341747,-0.7206543256317711
25179176,1904.0,1,216961.0,256990,1.42,0.13,9.9,-0.03,-0.01,-0.0,32.05,23.259684,-31.117261334066022,-200.02738182734984,10.002164765689475,0.03162277660168379,-0.2447553661720015,-0.5907370909242595
25219177,1901.0,1,217025.0,257097,1.43,0.11,9.9,-0.03,-0.01,-0.0,32.05,23.299685,-24.512106753285906,-154.57235239677922,10.003349439062898,0.03162277660168379,-0.1926212820725504,-0.46049731175341296
25259176,1904.0,1,217114.0,257458,1.4,0.13,9.9,-0.03,-0.01,0.0,32.05,23.339684,-36.32223518829599,-92.2205624231809,9.999344978547345,0.03162277660168379,-0.28583790880339893,-0.2818441801022229
25299174,1911.0,1,217205.0,257744,1.41,0.11,9.9,-0.03,-0.01,0.0,32.05,23.379682,-9.89106256813099,-9.343914628840384,10.000509986995663,0.03162277660168379,-0.07721826797978569,-0.04438230971356183
25339177,1959.0,1,217316.0,258003,1.41,0.12,9.9,-0.03,-0.01,-0.0,32.05,23.419685,18.107650876547044,88.5658999815339,10.00062498046997,0.03162277660168379,0.1437738774044753,0.23615326122894706
25379174,1950.0,1,217394.0,258237,1.41,0.13,9.9,-0.03,-0.01,-0.0,32.05,23.459682,29.742344479263423,195.39994093233358,10.00074997187711,0.03162277660168379,0.23560580765488315,0.5422589238072555
25419177,1975.0,1,217432.0,258354,1.41,0.11,9.9,-0.03,-0.01,-0.0,32.05,23.499685,40.1740521735627,301.1067465629939,10.000509986995663,0.03162277660168379,0.3179426431648339,0.8451347814331158
25459177,1926.0,1,217458.0,258525,1.41,0.11,9.885000000000002,-0.03,-0.01,-0.0,32.05,23.539685,2.5772278496211993,378.8574104707002,9.985660969610375,0.03162277660168379,0.021193191323063902,1.0679094539958844
25499177,1893.0,1,217507.0,258679,1.4,0.12,9.91,-0.03,-0.01,-0.0,32.05,23.579685,-31.988344815583577,383.6455816185315,10.009120840513416,0.03162277660168379,-0.2516307752071244,1.081628735684576
25539191,1899.0,1,217563.0,258497,1.41,0.12,9.885000000000002,-0.03,-0.01,-0.0,32.05,23.619699,-27.318887809828862,277.6444782477023,9.985776134081918,0.03162277660168379,-0.214775034548889,0.7779096430378558
25579863,1849.0,1,217276.0,257030,1.42,0.12,9.91,-0.03,-0.01,-0.0,31.89,23.660371,-66.65484053387843,68.03696421517124,10.011937874357791,0.03162277660168379,-0.5252513212681963,0.17733283817966858
25620177,1843.0,1,216837.0,256111,1.42,0.11,9.89,-0.03,-0.01,-0.0,31.89,23.700685,-83.56299733644207,-179.27185778427645,9.992026821421168,0.03162277660168379,-0.6587063763968907,-0.5312674370309755
25660176,1855.0,1,216698.0,255976,1.43,0.14,9.91,-0.03,-0.01,-0.0,31.89,23.740684,-52.41019481133715,-371.2534582530938,10.013620723794165,0.03162277660168379,-0.4128191973892508,-1.081341687628828
25700177,1871.0,1,216705.0,256052,1.42,0.12,9.9,-0.03,-0.01,0.0,31.89,23.780685,-54.24842445078609,-443.76902367203337,10.002039791962437,0.03162277660168379,-0.4273282323323537,-1.289116522337437
25741189,1869.0,1,216777.0,256064,1.41,0.13,9.9,-0.03,-0.01,-0.0,31.89,23.821697,-30.678317354827577,-397.1450615160354,10.00074997187711,0.03162277660168379,-0.2412908079926739,-1.1555274649473832
25779174,1927.0,1,216776.0,256327,1.4,0.12,9.91,-0.03,-0.01,-0.0,31.89,23.859682,5.198356724658555,-285.48172985056453,10.009120840513416,0.03162277660168379,0.04188160240193949,-0.8355847030621367
25819177,1907.0,1,216976.0,256562,1.41,0.12,9.9,-0.03,-0.01,-0.0,31.89,23.899685,12.052967394636429,-173.23163568011898,10.00062498046997,0.03162277660168379,0.09598462826865807,-0.5139607230579941
25859177,1968.0,1,217044.0,256576,1.41,0.1,9.9,-0.03,-0.01,-0.0,31.89,23.939685,54.41308098986109,-94.70817493901346,10.000404991799082,0.03162277660168379,0.4303304331438131,-0.2889717985150442
25899177,1984.0,1,217007.0,256663,1.42,0.13,9.925,-0.03,-0.01,0.0,31.89,23.979685,89.02289328221164,-43.857627632356035,10.026910042480685,0.03162277660168379,0.7035035803652234,-0.14327254070130635
25939194,1973.0,1,217073.0,256886,1.41,0.1,9.89,-0.03,-0.01,-0.0,31.89,24.019702,71.48207608898771,4.753336981572875,9.990505492716572,0.03162277660168379,0.5650549751825983,-0.00399023518063296
25979177,1947.0,1,217180.0,257260,1.43,0.12,9.89,-0.03,-0.01,-0.0,31.89,24.059685,50.302348422169196,66.38212936817499,9.993567931424693,0.03162277660168379,0.3978846705543945,0.17259133151391637
26019177,1927.0,1,217251.0,257545,1.43,0.12,9.91,-0.03,-0.01,-0.0,31.89,24.099685,36.49037783849788,134.25586921149204,10.013361074084964,0.03162277660168379,0.2888676252783369,0.3670662003993358
26059177,1906.0,1,217287.0,257825,1.42,0.11,9.885000000000002,-0.03,-0.01,-0.0,31.89,24.139685,10.678839719389945,193.05082233602468,9.987077900967831,0.03162277660168379,0.08513872195283308,0.535528124354211
26099177,1859.0,1,217384.0,258007,1.43,0.12,9.89,-0.03,-0.01,-0.0,31.89,24.179685,-25.53977978162648,241.28667863254142,9.993567931424693,0.03162277660168379,-0.20073264289401313,0.6737356527811961
26139176,1845.0,1,217409.0,258147,1.42,0.13,9.9,-0.03,-0.01,-0.0,31.89,24.219684,-44.05497220042809,297.97198526417276,10.002164765689475,0.03162277660168379,-0.3468719325766653,0.836152923442343
