timestamp_us,ecg,leads,ir,red,accX,accY,accZ,gyroX,gyroY,gyroZ,temp,time_sec,ecg_filtered,ppg_filtered,accel_magnitude,gyro_magnitude,ecg_norm,ppg_norm
2449958,2148.5,1,213628.0,246563,0.62,-0.845,9.919999999999998,-0.03,-0.01,-0.0,31.29,0.030459,13.601895255638121,-221.67524087634942,9.975210524094214,0.03162277660168379,0.3213887356078207,-0.6009043248291047
2490198,2148.5,1,213671.0,246770,0.65,-0.845,9.95,-0.03,-0.01,-0.0,31.29,0.070699,48.67432045423824,-305.0730296569024,10.006948835684131,0.03162277660168379,1.0985879651266344,-0.8283077679080388
2530188,2135.0,1,213689.0,246696,0.65,-0.845,9.94,-0.03,-0.01,-0.0,31.29,0.110689,52.14153547414293,-345.5654551190459,9.997005801738839,0.03162277660168379,1.175420885199511,-0.9387197716715693
2570192,1966.0,1,213701.0,246625,0.63,-0.845,9.94,-0.03,-0.01,-0.0,31.29,0.150693,-69.40842365699041,-336.26737650684026,9.995725336362538,0.03162277660168379,-1.5181064100994395,-0.9133664005408564
2610188,1839.0,1,213643.0,246872,0.65,-0.845,9.96,-0.03,-0.01,-0.0,31.29,0.190689,-187.03651145036332,-319.4203702431191,10.01689198304544,0.03162277660168379,-4.124725675379953,-0.8674291246734668
2650192,1768.5,1,213815.0,247223,0.65875,-0.845,9.96,-0.03,-0.01,0.0,31.29,0.230693,-213.29670868420965,-362.6486209608328,10.017463579294912,0.03162277660168379,-4.70664736860726,-0.9853009914846375
2690169,1768.5,1,213982.0,247395,0.63,-0.845,9.95,-0.03,-0.01,-0.0,31.29,0.27067,-198.80687550800155,-502.6875757011865,10.00566964275755,0.03162277660168379,-4.3855550256444875,-1.3671497303873803
2730171,1768.5,1,213660.0,245678,0.58,-0.84,9.97,-0.03,-0.01,-0.0,31.29,0.310672,-167.23809081268735,-697.4701580590678,10.02212053409856,0.03162277660168379,-3.685995898976999,-1.8982696860560009
2770188,1768.5,1,213310.0,245357,0.64,-0.845,9.94,-0.03,-0.01,-0.0,31.29,0.350689,-145.57944507744273,-837.5646253250703,9.996360587733918,0.03162277660168379,-3.2060438374205336,-2.2802697927545945
2810192,1768.5,1,213364.0,245788,0.63,-0.84,9.95,-0.03,-0.01,-0.0,31.29,0.390693,-124.79667388027922,-822.3857544951097,10.00524862259804,0.03162277660168379,-2.7455010129583695,-2.2388810756284596
2850158,1768.5,1,213816.0,246331,0.63,-0.83,9.98,-0.03,-0.01,-0.0,31.29,0.430659,-102.07744464922682,-640.1019790279236,10.03425134227761,0.03162277660168379,-2.2420465938912786,-1.741842020219698
2890191,1768.5,1,214175.0,246583,0.63,-0.84,9.96,-0.03,-0.01,-0.0,31.29,0.470692,-86.2821696781998,-378.1666816496159,10.01519345794179,0.03162277660168379,-1.8920258733963071,-1.0276145885492158
2930188,1768.5,1,214316.0,246499,0.63,-0.84,9.96,-0.03,-0.01,0.0,31.29,0.510689,-67.97595693164583,-155.35004279372038,10.01519345794179,0.03162277660168379,-1.4863631807976465,-0.4200532659770601
2970172,1768.5,1,214220.0,246613,0.61,-0.83,9.95,-0.03,-0.01,-0.0,31.29,0.550673,-54.387777496086116,-38.51706802959505,10.003174496128715,0.03162277660168379,-1.1852513378589404,-0.10148102185646288
3010188,1768.5,1,214325.875,246923,0.59,-0.84,9.95,-0.03,-0.01,-0.0,31.29,0.590689,-41.814800869349455,-12.666151388968679,10.0028096053059,0.03162277660168379,-0.9066362237992541,-0.03099249288246994
3050171,1768.5,1,214325.875,247104,0.62,-0.81,9.94,-0.03,-0.01,-0.0,31.29,0.630672,-30.715219855125774,-15.128839181057815,9.99220195952824,0.03162277660168379,-0.6606713165141822,-0.0377075831904772
3090169,1768.5,1,214325.875,247189,0.58,-0.82,10.0,-0.03,-0.01,0.0,31.29,0.67067,-23.224835790081492,8.757292531415885,10.050313427948403,0.03162277660168379,-0.4946856257275417,0.02742350328888091
3130172,1768.5,1,214325.875,247459,0.57,-0.8049999999999999,9.97,-0.03,-0.01,-0.0,31.29,0.710673,-15.210892382966716,74.69179133489126,10.018673814432727,0.03162277660168379,-0.3170979452022274,0.2072092298031367
3170188,1768.5,1,214325.875,248110,0.6,-0.83,9.96,-0.03,-0.01,-0.0,31.29,0.750689,-12.07020270378293,166.18147729397305,10.012517166027733,0.03162277660168379,-0.24750077349262015,0.4566771101572621
3210192,1768.5,1,214325.875,248457,0.6,-0.81,9.97,-0.03,-0.01,-0.0,31.29,0.790693,-7.709454452049302,261.240452061391,10.02082830907705,0.03162277660168379,-0.15086730254838202,0.7158774855358603
3250188,1768.5,1,214325.875,248634,0.61,-0.8049999999999999,9.94,-0.03,-0.01,-0.0,31.29,0.830689,-7.209669085302864,353.82749449941036,9.991182362463412,0.03162277660168379,-0.13979214023039058,0.9683375632281191
3290192,1768.5,1,214325.875,248669,0.61,-0.81,9.96,-0.03,-0.01,-0.0,31.29,0.870693,-8.229264972823538,456.2273859577771,10.01148340656868,0.03162277660168379,-0.1623862190177693,1.247554653141799
3330189,1768.5,1,214325.875,248596,0.58,-0.8049999999999999,9.99,-0.03,-0.01,-0.0,31.29,0.91069,-7.587712167513349,584.7001080210046,10.039149615380778,0.03162277660168379,-0.14816951335343978,1.597865372000011
3370192,1768.5,1,214325.875,248081,0.58,-0.8049999999999999,9.97,-0.03,-0.01,0.0,31.29,0.950693,-14.96237352402972,741.5861348658956,10.019247726251708,0.03162277660168379,-0.31159080776895864,2.025651566300423
3410189,1768.5,1,214325.875,246787,0.59,-0.81,9.94,-0.03,-0.01,-0.0,31.29,0.99069,-14.515670230367524,909.0588891021399,9.990385377952142,0.03162277660168379,-0.3016919355440738,2.4823049319603365
3450192,1768.5,1,214325.875,245426,0.59,-0.81,9.95,-0.03,-0.01,-0.0,31.29,1.030693,-23.158680422535404,1062.2199026282658,10.000334994388936,0.03162277660168379,-0.4932196335586453,2.899934012186285
3490875,1768.5,1,214325.875,244657,0.6,-0.8049999999999999,9.97,-0.03,-0.01,0.0,32.13,1.071376,-30.75701812994297,1193.840799823152,10.020425390171816,0.03162277660168379,-0.6615975594756879,3.258828961811556
3529192,1768.5,1,214325.875,244108,0.58,-0.83,9.97,-0.03,-0.01,0.0,32.13,1.109693,-28.85132649076092,1327.3013773602565,10.021287342452565,0.03162277660168379,-0.6193677431659833,3.622740227218123
3569189,1776.0,1,214325.875,243338,0.57,-0.81,9.98,-0.03,-0.01,-0.0,32.13,1.14969,-47.3933088944769,1492.7212190030777,10.029027869140657,0.03162277660168379,-1.0302550529632728,4.073795849833399
3609192,1777.0,1,214193.0,242538,0.58,-0.8049999999999999,9.96,-0.03,-0.01,-0.0,32.13,1.189693,-26.313096772393294,1666.283506902967,10.009296928356157,0.03162277660168379,-0.5631209860544788,4.547053743528243
3649212,1843.0,1,213853.0,241703,0.59,-0.81,9.95,-0.03,-0.01,-0.0,32.13,1.229713,-3.5930745328180342,1717.05077347012,10.000334994388936,0.03162277660168379,-0.059648994047692604,4.685482488245378
3689192,1821.0,1,213366.0,240472,0.61,-0.81,9.96,-0.03,-0.01,-0.0,32.13,1.269693,3.6139408079829316,1432.6338307685442,10.01148340656868,0.03162277660168379,0.10005729196712086,3.909953628475369
3729188,1951.0,1,212677.0,238488,0.58,-0.8049999999999999,9.98,-0.03,-0.01,-0.0,32.13,1.309689,90.74548227754549,658.6242881499732,10.029198622023596,0.03162277660168379,2.0308780582377555,1.7994368205230535
3769192,2027.0,1,211683.0,235946,0.58,-0.8049999999999999,9.98,-0.03,-0.01,0.0,32.13,1.349693,185.85248117478255,-517.19919480375,10.029198622023596,0.03162277660168379,4.138433661998218,-1.4067190306868922
3809169,2133.0,1,210125.0,230443,0.57,-0.8049999999999999,9.97,-0.03,-0.01,0.0,32.13,1.38967,266.1590276927346,-1696.9875084603723,10.018673814432727,0.03162277660168379,5.918013651851908,-4.623685913774875
3849199,2148.5,1,208304.875,226426,0.59,-0.8049999999999999,9.919999999999998,-0.03,-0.01,0.0,32.13,1.4297,283.5519636807246,-2343.9766812446464,9.970081494150385,0.03162277660168379,6.303438280242745,-6.387852178579286
3889169,2047.0,1,208304.875,231455,0.64,-0.8049999999999999,9.919999999999998,-0.03,-0.01,0.0,32.13,1.46967,170.8814319515492,-2123.6740167774055,9.973165244795654,0.03162277660168379,3.8066776498177535,-5.787145791133727
3929172,1968.0,1,210316.0,235894,0.57,-0.8049999999999999,9.97,-0.03,-0.01,0.0,32.13,1.509673,88.28657515312072,-1160.4769320523794,10.018673814432727,0.03162277660168379,1.9763890768873145,-3.1607652043964194
3969169,1919.0,1,211081.0,236647,0.55,-0.8049999999999999,9.97,-0.03,-0.01,0.0,32.13,1.54967,28.61669383636036,13.67128334372641,10.017555839624753,0.03162277660168379,0.654114226423987,0.04082264067989811
4009192,1837.0,1,211124.0,236524,0.55,-0.8049999999999999,9.97,-0.03,-0.01,-0.0,32.13,1.589693,-51.21039865919697,790.9284614382875,10.017555839624753,0.03162277660168379,-1.1148411403908112,2.160194881131134
4049188,1851.0,1,210940.0,236308,0.59,-0.8049999999999999,9.95,-0.03,-0.01,-0.0,32.13,1.629689,-50.82743620715028,845.3848112900627,9.99993124976367,0.03162277660168379,-1.1063547548334987,2.30868276833867
4089192,1872.0,1,210550.0,234219,0.57,-0.81,9.95,-0.03,-0.01,-0.0,32.13,1.669693,-26.371148494064876,271.97005336426105,9.999174965965942,0.03162277660168379,-0.5644074027507839,0.7451342358024312
4129189,1882.0,1,209311.0,231255,0.56,-0.8049999999999999,9.96,-0.03,-0.01,0.0,32.13,1.70969,-22.861129108437698,-543.7305773218782,10.008157922415094,0.03162277660168379,-0.48662594490582073,-1.4790630079372038
4169192,1915.0,1,208446.0,229421,0.56,-0.8049999999999999,9.98,-0.03,-0.01,0.0,32.13,1.749693,3.783071408144395,-1191.5866068437583,10.028061876554213,0.03162277660168379,0.10380519851732974,-3.245592958993615
4209189,1952.0,1,208304.875,228777,0.59,-0.8049999999999999,9.94,-0.03,-0.01,-0.0,32.13,1.78969,48.901011946249824,-1453.9388785291915,9.9899812312136,0.03162277660168379,1.1036114116642552,-3.9609573679689185
4249192,1972.0,1,208304.875,229012,0.55,-0.8049999999999999,9.95,-0.03,-0.01,-0.0,32.13,1.829693,51.34946152525372,-1359.6668934695895,9.997650974103866,0.03162277660168379,1.1578686555115798,-3.7039029028337676
4289189,1920.0,1,208304.875,230247,0.5487500000000001,-0.8049999999999999,9.96,-0.03,-0.01,-0.0,32.13,1.86969,16.11487935761336,-1085.423434655832,10.007534739510026,0.03162277660168379,0.37707605397228156,-2.956114410021035
4329192,1946.0,1,208461.0,231077,0.57,-0.8049999999999999,9.98,-0.03,-0.01,0.0,32.13,1.909693,24.193845130072177,-806.3464072624408,10.028625279668196,0.03162277660168379,0.5561046195222475,-2.195146069715473
4369189,1952.0,1,208596.0,231496,0.55,-0.81,9.94,-0.03,-0.01,0.0,32.13,1.94969,42.20578973206157,-603.1407320089331,9.988102922977916,0.03162277660168379,0.9552463779701481,-1.6410585947175418
4409192,1947.0,1,208641.0,231441,0.59,-0.8049999999999999,9.97,-0.03,-0.01,-0.0,32.13,1.989693,29.959085629885355,-464.08447012158706,10.019831585411005,0.03162277660168379,0.6838614099087962,-1.261889396142313
4449188,1920.0,1,208612.0,231471,0.57,-0.82,9.97,-0.03,-0.01,-0.0,32.13,2.029689,3.2931348019200697,-345.01120716837914,10.019890218959487,0.03162277660168379,0.09294828312826202,-0.9372084858911667
4489192,1895.0,1,208781.0,232290,0.58,-0.8049999999999999,9.95,-0.03,-0.01,0.0,32.13,2.069693,-18.04075003682161,-221.76109127735003,9.999346228629149,0.03162277660168379,-0.37980712986139736,-0.6011384158891041
4529875,1919.0,1,209047.0,232877,0.56,-0.8049999999999999,9.98,-0.03,-0.01,-0.0,31.89,2.110376,-1.1975673594013787,-96.81065176546203,10.028061876554213,0.03162277660168379,-0.006564945284491386,-0.2604320185768631
4570191,1919.0,1,208990.0,232924,0.57,-0.8049999999999999,9.94,-0.03,-0.01,0.0,31.89,2.150692,5.823234508064428,25.739923582912954,9.988820000380425,0.03162277660168379,0.1490148804931816,0.07373059164360464
4610188,1919.0,1,208966.0,233352,0.57,-0.8049999999999999,9.99,-0.03,-0.01,0.0,31.89,2.190689,-2.285281928411417,153.17879970112097,10.038576841365513,0.03162277660168379,-0.03066852295794901,0.4212222893868898
4650192,1934.0,1,209118.0,234225,0.56,-0.8049999999999999,9.94,-0.03,-0.01,0.0,31.89,2.230693,18.496525356084263,283.50661665277875,9.988254351987639,0.03162277660168379,0.4298529413565059,0.7765913553671971
4690189,1957.0,1,209255.0,234519,0.56,-0.8049999999999999,9.95,-0.03,-0.01,0.0,31.89,2.27069,33.01645080393715,377.9908231646138,9.998206089094182,0.03162277660168379,0.7516121241572522,1.0342244915875012
4730191,1926.0,1,209292.0,235497,0.56,-0.8049999999999999,9.93,-0.03,-0.01,0.0,31.89,2.310692,7.9316316692071505,371.7625735924427,9.978302711383334,0.03162277660168379,0.1957366181512088,1.0172417224064931
4770189,1856.0,1,209394.0,235086,0.5487500000000001,-0.8049999999999999,9.97,-0.03,-0.01,0.0,31.89,2.35069,-73.40197406056558,229.40432539602043,10.01748728786316,0.03162277660168379,-1.6066028365406613,0.6290688911611074
4808171,1768.5,1,208976.0,233623,0.5487500000000001,-0.8049999999999999,9.97,-0.03,-0.01,-0.0,31.89,2.388672,-154.1635595471878,-2.5657913456086194,10.01748728786316,0.03162277660168379,-3.39626641581963,-0.0034515150726055106
4848188,1768.5,1,208633.0,232646,0.58,-0.8049999999999999,9.96,-0.03,-0.01,-0.0,31.89,2.428689,-166.8718585155131,-204.5295797358073,10.009296928356157,0.03162277660168379,-3.6778802509265165,-0.5541526970673246
4888191,1768.5,1,208652.0,233420,0.57,-0.81,9.96,-0.03,-0.01,-0.0,31.89,2.468692,-163.33121713740985,-259.1224607616998,10.009125835955906,0.03162277660168379,-3.5994202147162424,-0.7030128682350938
4928188,1768.5,1,209089.0,234959,0.57,-0.81,9.94,-0.03,-0.01,0.0,31.89,2.508689,-172.55414931601769,-133.08675787287126,9.989224194100359,0.03162277660168379,-3.8037988894879087,-0.35934724823634806
4968192,1768.5,1,209300.0,235790,0.55,-0.8049999999999999,9.96,-0.03,-0.01,0.0,31.89,2.548693,-176.23653407209352,102.79309332232968,10.007603359446257,0.03162277660168379,-3.885399935865739,0.28383395715363585
5008188,1777.0,1,209516.0,236140,0.58,-0.8049999999999999,9.98,-0.03,-0.01,-0.0,31.89,2.588689,-171.70104301900176,327.7248024795977,10.029198622023596,0.03162277660168379,-3.7848941929069353,0.8971625101993923
5048192,1797.0,1,209594.0,236402,0.55,-0.8049999999999999,9.95,-0.03,-0.01,-0.0,31.89,2.628693,-161.30117851570662,451.15849938221623,9.997650974103866,0.03162277660168379,-3.5544348895285176,1.2337331564724783
5088195,1820.0,1,209714.0,236638,0.55,-0.82,9.98,-0.03,-0.01,-0.0,31.89,2.668696,-140.34433957783187,462.9489792037523,10.028723747317004,0.03162277660168379,-3.090034752285763,1.2658826384452568
5128191,1893.0,1,209779.0,236822,0.55,-0.8049999999999999,9.99,-0.03,-0.01,-0.0,31.89,2.708692,-78.1729609053076,431.26342721225546,10.037461083361668,0.03162277660168379,-1.7123271278829635,1.1794846208949026
5168188,1966.0,1,209858.0,237149,0.56,-0.8049999999999999,9.96,-0.03,-0.01,-0.0,31.89,2.748689,-8.799896720232594,459.51102816301983,10.008157922415094,0.03162277660168379,-0.1750313255912091,1.2565082663518128
5208191,2000.0,1,210107.0,237831,0.57,-0.8049999999999999,9.96,-0.03,-0.01,-0.0,31.89,2.788692,15.216008687777489,625.0287895418788,10.008722445946836,0.03162277660168379,0.35715722634409164,1.7078308898725798
5248188,2035.0,1,210342.0,238696,0.58,-0.81,9.96,-0.03,-0.01,-0.0,31.89,2.828689,46.115481226419355,923.3413630958257,10.009700295213639,0.03162277660168379,1.0418845046427345,2.52124941489376
5288205,2112.0,1,210610.0,239328,0.59,-0.81,9.94,-0.03,-0.01,-0.0,31.89,2.868706,111.36522755017694,1245.986320989002,9.990385377952142,0.03162277660168379,2.4878082547672786,3.4010158378384756
5328188,2129.0,1,210857.0,240044,0.56,-0.8049999999999999,9.97,-0.03,-0.01,-0.0,31.89,2.908689,128.31326189055798,1418.4513993167027,10.018109851663636,0.03162277660168379,2.863373935116304,3.871281934770562
5368192,2100.0,1,211043.0,240186,0.57,-0.83,9.95,-0.03,-0.01,-0.0,31.89,2.948693,82.3271671082293,1297.1623686117628,10.000814966791456,0.03162277660168379,1.8443295653294227,3.540559219057007
5408189,2077.0,1,210699.0,239611,0.58,-0.81,9.94,-0.03,-0.01,-0.0,31.89,2.98869,65.7277430436187,873.2699849269653,9.989799797793747,0.03162277660168379,1.4764890319069905,2.3847181715382844
5448192,2118.0,1,209748.0,239056,0.59,-0.81,9.93,-0.03,-0.01,0.0,31.89,3.028693,86.14048810060835,301.53665519712325,9.980435862225658,0.03162277660168379,1.9288321373757722,0.8257544435471312
5488188,2130.0,1,209203.0,238539,0.56,-0.83,9.96,-0.03,-0.01,0.0,31.89,3.068689,106.13465698058447,-185.48649229469885,10.010199798205829,0.03162277660168379,2.37189966294303,-0.5022272957553529
5528192,2148.5,1,209221.0,238158,0.57,-0.84,9.96,-0.03,-0.01,-0.0,31.89,3.108693,109.66332492343119,-422.8884601043052,10.01159827400201,0.03162277660168379,2.4500943697783493,-1.1495589056577902
5568855,2135.0,1,209372.0,237674,0.6,-0.8049999999999999,9.919999999999998,-0.03,-0.01,-0.0,32.290000000000006,3.149356,95.37253712484053,-406.40529094964796,9.970678261783396,0.03162277660168379,2.133412839961448,-1.1046137161817882
5609192,2148.5,1,209493.0,238090,0.57,-0.8049999999999999,9.97,-0.03,-0.01,-0.0,32.290000000000006,3.189693,109.61410967028935,-266.38786533886247,10.018673814432727,0.03162277660168379,2.449003767785307,-0.7228236814516846
5649188,2148.5,1,209492.0,238615,0.55,-0.8049999999999999,9.98,-0.03,-0.01,0.0,32.290000000000006,3.229689,94.38305581571892,-159.0920892759647,10.027508414356978,0.03162277660168379,2.1114860953260846,-0.4302568249282802
5689192,2064.0,1,209411.0,238617,0.57,-0.82,9.97,-0.03,-0.01,0.0,32.290000000000006,3.269693,26.70735604844013,-169.37527266351987,10.019890218959487,0.03162277660168379,0.6118036120521588,-0.4582963130530232
5728189,2066.0,1,209259.0,238296,0.58,-0.81,9.97,-0.03,-0.01,0.0,32.290000000000006,3.30869,4.922539994776132,-286.79833761456575,10.019650692514187,0.03162277660168379,0.12905563679116844,-0.7784775751367455
5768192,2015.0,1,209213.0,238391,0.6,-0.81,9.95,-0.03,-0.01,0.0,32.290000000000006,3.348693,-22.71492314140943,-444.1084923631407,10.00092995675902,0.03162277660168379,-0.48338604449169253,-1.207420252684661
5808188,2003.0,1,209124.0,238638,0.55,-0.8049999999999999,9.96,-0.03,-0.01,-0.0,32.290000000000006,3.388689,-56.177768332363705,-567.4409573480532,10.007603359446257,0.03162277660168379,-1.2249172432225708,-1.5437148666195706
5848192,2036.0,1,209105.0,238635,0.6,-0.83,9.94,-0.03,-0.01,-0.0,32.290000000000006,3.428693,-2.5790706783775574,-605.0012434217259,9.992622278461244,0.03162277660168379,-0.037178833802495155,-1.6461317112514826
5888188,2101.0,1,209071.0,238000,0.6,-0.83,9.94,-0.03,-0.01,-0.0,32.290000000000006,3.468689,49.90169359520771,-538.8141035358243,9.992622278461244,0.03162277660168379,1.1257863540059878,-1.4656571001415204
5928191,2107.0,1,209064.0,237946,0.59,-0.82,9.96,-0.03,-0.01,-0.0,32.290000000000006,3.508692,69.68737128338121,-395.133788186051,10.01109884078666,0.03162277660168379,1.564233748723642,-1.0738793457075273
5968163,2148.5,1,209210.0,238311,0.58,-0.8049999999999999,9.96,-0.03,-0.01,-0.0,32.290000000000006,3.548664,109.44686655425637,-247.33934457050944,10.009296928356157,0.03162277660168379,2.4452976875759367,-0.6708834649109059
6008192,2126.0,1,209538.0,238290,0.57,-0.82,9.97,-0.03,-0.01,-0.0,32.290000000000006,3.588693,93.51725295980484,-188.63563810777495,10.019890218959487,0.03162277660168379,2.092300045068047,-0.5108141733107696
6048188,2067.0,1,209405.0,237182,0.57,-0.8049999999999999,9.97,-0.03,-0.01,-0.0,32.290000000000006,3.628689,41.76046264349978,-273.8670961604841,10.018673814432727,0.03162277660168379,0.9453780022261208,-0.7432175415922001
6088192,2064.0,1,209029.0,236184,0.6,-0.8049999999999999,9.96,-0.03,-0.01,-0.0,32.290000000000006,3.668693,41.457780748378006,-471.32666095941744,10.010475762919564,0.03162277660168379,0.9386706207335137,-1.2816369117064352
6128188,2032.0,1,208728.0,235817,0.6,-0.82,9.96,-0.03,-0.01,-0.0,32.290000000000006,3.708689,20.25129429264529,-672.4333813776196,10.011693163496373,0.03162277660168379,0.46873833515964713,-1.8300010987923623
6168192,1968.0,1,208756.0,235828,0.59,-0.8049999999999999,9.95,-0.03,-0.01,-0.0,32.290000000000006,3.748693,-39.57474129860535,-760.2796887725498,9.99993124976367,0.03162277660168379,-0.8569968685907056,-2.069534461192922
6208188,1942.0,1,208867.0,236233,0.6,-0.8049999999999999,9.96,-0.03,-0.01,-0.0,32.290000000000006,3.788689,-56.43613990861971,-684.1025279032624,10.010475762919564,0.03162277660168379,-1.230642715266738,-1.8618197373501093
6248192,1945.0,1,209052.0,237042,0.61,-0.84,9.95,-0.03,-0.01,0.0,32.290000000000006,3.828693,-44.93474090098036,-482.84982386300703,10.004009196317243,0.03162277660168379,-0.9757735866989611,-1.3130574920090001
6288169,1945.0,1,209353.0,237449,0.56,-0.8049999999999999,9.98,-0.03,-0.01,-0.0,32.290000000000006,3.86867,-39.074069379881756,-247.52848479842308,10.028061876554213,0.03162277660168379,-0.8459020604253091,-0.6713991996765538
6328192,1934.0,1,209389.0,237646,0.59,-0.81,9.96,-0.03,-0.01,-0.0,32.290000000000006,3.908693,-38.188262800111026,-59.60770319500632,10.010284711235741,0.03162277660168379,-0.8262727309049774,-0.15898953765124302
6368188,1936.0,1,209541.0,237664,0.59,-0.8049999999999999,9.97,-0.03,-0.01,-0.0,32.290000000000006,3.948689,-31.68645060990123,49.011154358545156,10.019831585411005,0.03162277660168379,-0.6821936318380334,0.13718500788703888
6408192,1955.0,1,209626.0,237710,0.56,-0.8049999999999999,9.95,-0.03,-0.01,-0.0,32.290000000000006,3.988693,-1.8865266361292843,96.72766288364592,9.998206089094182,0.03162277660168379,-0.021832170633485495,0.2672951521603542
6448188,1943.0,1,209661.0,237908,0.57,-0.81,9.94,-0.03,-0.01,-0.0,32.290000000000006,4.028689,-5.15742532195749,127.16694433542409,9.989224194100359,0.03162277660168379,-0.09431475272082997,0.35029492359550757
6488192,1898.0,1,209787.0,238010,0.57,-0.8049999999999999,9.97,-0.03,-0.01,-0.0,32.290000000000006,4.068693,-48.123291197074344,180.92612340131663,10.018673814432727,0.03162277660168379,-1.0464313418833715,0.4968818127137428
6528188,1867.0,1,209873.0,238277,0.59,-0.8049999999999999,9.94,-0.03,-0.01,-0.0,32.290000000000006,4.108689,-59.155892485461266,276.0697834832932,9.9899812312136,0.03162277660168379,-1.290911989354104,0.7563131022735253
6568192,1869.0,1,209941.0,238412,0.58,-0.83,9.96,-0.03,-0.01,-0.0,32.290000000000006,4.148693,-69.32416999592196,398.25581977349196,10.011338571839433,0.03162277660168379,-1.516239362694085,1.089481712075299
6608875,1823.0,1,210053.0,238645,0.58,-0.8049999999999999,9.97,-0.03,-0.01,-0.0,31.95,4.189376,-83.86732134431163,501.96845528961904,10.019247726251708,0.03162277660168379,-1.838513227667503,1.3722783035918527
6649192,1855.0,1,210162.0,238842,0.57,-0.8049999999999999,9.96,-0.03,-0.01,-0.0,31.95,4.229693,-72.8956977542643,528.9688057985375,10.008722445946836,0.03162277660168379,-1.595383836059432,1.4459010310027962
6689188,1839.0,1,210232.0,238384,0.6,-0.81,9.93,-0.03,-0.01,-0.0,31.95,4.269689,-57.60894102660314,443.1907903877044,9.981032010769226,0.03162277660168379,-1.2566317970058563,1.2120073471279325
6728192,1871.0,1,209920.0,237831,0.59,-0.8049999999999999,9.96,-0.03,-0.01,-0.0,31.95,4.308693,-40.6820626303489,262.8836441146479,10.009881367928394,0.03162277660168379,-0.8815349289326286,0.7203580303562248
6768169,1856.0,1,209733.0,237690,0.56,-0.8049999999999999,9.97,-0.03,-0.01,0.0,31.95,4.34867,-39.453139417107714,62.36525488815677,10.018109851663636,0.03162277660168379,-0.8543021907042224,0.17359806492439794
6808171,1858.0,1,209698.0,237777,0.55,-0.8049999999999999,9.95,-0.03,-0.01,0.0,31.95,4.388672,-36.28235455273448,-65.62821819805549,9.997650974103866,0.03162277660168379,-0.7840381145929658,-0.17540587027613164
6848188,1871.0,1,209692.0,237876,0.55,-0.8049999999999999,9.95,-0.03,-0.01,-0.0,31.95,4.428689,-25.16638774404658,-63.815852454931104,9.997650974103866,0.03162277660168379,-0.5377101007716183,-0.17046403409400854
6888192,1863.0,1,209827.0,238417,0.58,-0.8049999999999999,9.95,-0.03,-0.01,-0.0,31.95,4.468693,-21.08908187657502,57.488822484660396,9.999346228629149,0.03162277660168379,-0.4473576668932243,0.16030133925922851
6928223,1872.0,1,210172.0,238877,0.59,-0.8049999999999999,9.95,-0.03,-0.01,-0.0,31.95,4.508724,-20.19789495834929,231.53747074591897,9.99993124976367,0.03162277660168379,-0.4276091099491232,0.634885407453058
6968192,1845.0,1,210302.0,239027,0.58,-0.81,9.99,-0.03,-0.01,-0.0,31.95,4.548693,-38.65305724733972,378.49026958837555,10.039551782823773,0.03162277660168379,-0.8365725001460614,1.0355863482752814
7008189,1862.0,1,210300.0,239082,0.59,-0.82,9.94,-0.03,-0.01,-0.0,31.95,4.58869,-23.88049234685202,448.06798897349853,9.991201128993449,0.03162277660168379,-0.5092148682268984,1.2253061619671086
7048192,1884.0,1,210299.0,239158,0.57,-0.81,9.97,-0.03,-0.01,-0.0,31.95,4.628693,-1.94167979634767,435.066385872797,10.019076803777882,0.03162277660168379,-0.023054355680129143,1.1898542710491722
7088188,1887.0,1,210392.0,239083,0.58,-0.81,9.97,-0.03,-0.01,-0.0,31.95,4.668689,1.0767234000588701,367.38099469377585,10.019650692514187,0.03162277660168379,0.04383296749015228,1.0052943297687738
7128232,1921.0,1,210361.0,238839,0.58,-0.81,9.96,-0.03,-0.01,-0.0,31.95,4.708733,38.002923073060096,284.2152260029745,10.009700295213639,0.03162277660168379,0.8621115374038153,0.7785235433590929
7168189,1927.0,1,210296.0,238674,0.59,-0.82,9.96,-0.03,-0.01,-0.0,31.95,4.74869,31.673801468923564,217.229492441593,10.01109884078666,0.03162277660168379,0.7218592335950064,0.5958713810924321
7208192,1899.0,1,210189.0,238680,0.61,-0.82,9.96,-0.03,-0.01,-0.0,31.95,4.788693,21.97290673565445,175.39265254730302,10.012297438650133,0.03162277660168379,0.5068889864664786,0.481793519093744
7248189,1960.0,1,210147.0,238720,0.59,-0.83,9.95,-0.03,-0.01,-0.0,31.95,4.82869,53.887710254444926,136.19693381038272,10.001974805007258,0.03162277660168379,1.2141158338998381,0.3749172874207096
7288192,1921.0,1,210215.0,238623,0.6,-0.8049999999999999,9.96,-0.03,-0.01,-0.0,31.95,4.868693,43.661270901453655,55.30596627062672,10.010475762919564,0.03162277660168379,0.9874996036032538,0.15434927474917695
7328188,1954.0,1,210189.0,238002,0.59,-0.83,9.96,-0.03,-0.01,-0.0,31.95,4.908689,44.20402309501673,-100.25014693271754,10.011922892232041,0.03162277660168379,0.9995269038047153,-0.2698106010899482
7368192,1934.0,1,209907.0,236949,0.58,-0.81,9.96,-0.03,-0.01,-0.0,31.95,4.948693,46.90582921713544,-315.88117473892373,10.009700295213639,0.03162277660168379,1.0593984873786875,-0.8577786860329258
7408189,1934.0,1,209582.0,236270,0.6,-0.8049999999999999,9.98,-0.03,-0.01,-0.0,31.95,4.98869,26.241173599477676,-524.7684035862327,10.030375117611506,0.03162277660168379,0.6014730849187436,-1.4273582366381328
7448191,1947.0,1,209541.0,236263,0.57,-0.82,9.96,-0.03,-0.01,-0.0,31.95,5.028692,46.982077619865706,-646.474291028178,10.009940059760599,0.03162277660168379,1.0610881395632297,-1.7592176090742668
7488189,1970.0,1,209650.0,236570,0.59,-0.81,9.97,-0.03,-0.01,-0.0,31.95,5.06869,62.94642277890859,-639.7947729905032,10.02023452819344,0.03162277660168379,1.4148554278851038,-1.741004351599636
7528192,1947.0,1,209799.0,236909,0.6,-0.8049999999999999,9.98,-0.03,-0.01,-0.0,31.95,5.108693,37.667218021611134,-526.3751123041698,10.030375117611506,0.03162277660168379,0.8546723681460783,-1.4317393011702542
7568188,1935.0,1,209965.0,237395,0.6,-0.81,9.96,-0.03,-0.01,-0.0,31.95,5.148689,23.941994226516876,-369.11707866498915,10.01087908227844,0.03162277660168379,0.5505236445229877,-1.002938743934
7608192,1937.0,1,210108.0,237599,0.6,-0.81,9.97,-0.03,-0.01,0.0,31.95,5.188693,22.710910467088265,-228.3348165974368,10.02082830907705,0.03162277660168379,0.5232430289429956,-0.6190632049452797
7648874,1920.0,1,210139.0,237814,0.6,-0.8049999999999999,9.96,-0.03,-0.01,-0.0,31.69,5.229375,2.9213492788864737,-131.01751495061504,10.010475762919564,0.03162277660168379,0.08470957649729048,-0.35370497675687324
7689192,1942.0,1,210284.0,238097,0.59,-0.8049999999999999,9.95,-0.03,-0.01,-0.0,31.69,5.269693,23.11445023928292,-69.15010895337085,9.99993124976367,0.03162277660168379,0.5321854045629856,-0.18500912349923548
7727189,1977.0,1,210385.0,238415,0.58,-0.81,9.97,-0.03,-0.01,0.0,31.69,5.30769,56.56647282384429,-17.102514757490365,10.019650692514187,0.03162277660168379,1.2734767760990713,-0.043089268102802114
7768192,1937.0,1,210483.0,238661,0.59,-0.8049999999999999,9.96,-0.03,-0.01,0.0,31.69,5.348693,11.104554776447085,49.89777305762217,10.009881367928394,0.03162277660168379,0.26604807737609715,0.13960257971737608
7808188,1911.0,1,210548.0,238905,0.58,-0.81,9.93,-0.03,-0.01,-0.0,31.69,5.388689,-10.087485947372576,144.08404829997332,9.979849698267003,0.03162277660168379,-0.2035640931316146,0.39642333712677663
7848192,1934.0,1,210658.0,239160,0.58,-0.8049999999999999,9.96,-0.03,-0.01,-0.0,31.69,5.428693,2.274345519653723,258.1029589780413,10.009296928356157,0.03162277660168379,0.07037207858193271,0.7073223818547848
7888188,1890.0,1,210784.0,239422,0.58,-0.83,9.97,-0.03,-0.01,-0.0,31.69,5.468689,-34.75796882840124,362.2475721315217,10.021287342452565,0.03162277660168379,-0.7502579752460989,0.991296860741059
7928192,1895.0,1,210857.0,239565,0.6,-0.8049999999999999,9.97,-0.03,-0.01,-0.0,31.69,5.508693,-35.63203174894554,411.9886269384008,10.020425390171816,0.03162277660168379,-0.7696270671908759,1.1269274007212735
7968188,1931.0,1,210853.0,239563,0.6,-0.8049999999999999,9.96,-0.03,-0.01,-0.0,31.69,5.548689,-3.664638966619007,369.2349666234755,10.010475762919564,0.03162277660168379,-0.06123485024372454,1.010349614883044
8008192,1901.0,1,210769.0,238963,0.59,-0.82,9.97,-0.03,-0.01,-0.0,31.69,5.588693,-22.390368914774218,228.07331474792184,10.021047849401779,0.03162277660168379,-0.4761939756954911,0.6254395814566405
8048189,1909.0,1,210484.0,238297,0.59,-0.82,9.97,-0.03,-0.01,-0.0,31.69,5.62869,-37.18587385280254,26.255238683589944,10.021047849401779,0.03162277660168379,-0.8040599551098941,0.07513571796503345
8088192,1940.0,1,210288.0,237952,0.59,-0.8049999999999999,9.99,-0.03,-0.01,-0.0,31.69,5.668693,22.63753578164217,-169.65729222790776,10.039732317148701,0.03162277660168379,0.5216170578653763,-0.4590653049039485
8128188,1997.0,1,210251.0,237884,0.59,-0.81,9.95,-0.03,-0.01,-0.0,31.69,5.708689,45.48512540965866,-297.789893038488,10.000334994388936,0.03162277660168379,1.0279159224208052,-0.8084486041621062
8168191,1894.0,1,210202.0,237891,0.61,-0.82,9.97,-0.03,-0.01,-0.0,31.69,5.748692,-24.93441169510182,-330.52075561206686,10.022245257426103,0.03162277660168379,-0.5325695493131499,-0.8976969038233902
8208188,1920.0,1,210270.0,238154,0.61,-0.8049999999999999,9.94,-0.03,-0.01,0.0,31.69,5.788689,-27.9313438906946,-281.58026786943816,9.991182362463412,0.03162277660168379,-0.5989810786027698,-0.7642492959027435
8248192,1936.0,1,210374.0,238456,0.61,-0.82,9.96,-0.03,-0.01,-0.0,31.69,5.828693,9.34268274091832,-189.92123699651063,10.012297438650133,0.03162277660168379,0.22700528005684145,-0.5143196573049102
8288189,1931.0,1,210495.0,238634,0.6,-0.82,9.96,-0.03,-0.01,-0.0,31.69,5.86869,-9.885884433704929,-94.66985101245469,10.011693163496373,0.03162277660168379,-0.19909663642723546,-0.25459462805010896
8328192,1915.0,1,210581.0,238856,0.6,-0.83,9.96,-0.03,-0.01,-0.0,31.69,5.908693,-18.535401078463106,-17.810195830373726,10.012517166027733,0.03162277660168379,-0.390768516371384,-0.04501892493098167
8368188,1910.0,1,210606.0,239114,0.61,-0.8049999999999999,9.94,-0.03,-0.01,-0.0,31.69,5.948689,-26.688914040702812,37.67168532717203,9.991182362463412,0.03162277660168379,-0.5714490355040412,0.10626531159621237
8408192,1904.0,1,210691.0,239379,0.58,-0.83,9.97,-0.03,-0.01,-0.0,31.69,5.988693,-32.315384503456194,78.81601938482164,10.021287342452565,0.03162277660168379,-0.6961307044733384,0.21845489557330136
8448188,1920.0,1,210755.0,239558,0.6,-0.83,9.94,-0.03,-0.01,0.0,31.69,6.028689,-15.393160702195592,113.9236598995536,9.992622278461244,0.03162277660168379,-0.3211369814669915,0.3141840323785349
8488192,1916.0,1,210871.0,239799,0.61,-0.8049999999999999,9.96,-0.03,-0.01,-0.0,31.69,6.068693,-21.431360244876053,150.28575791399294,10.011080111556396,0.03162277660168379,-0.4549424997816879,0.4133337389470782
8528189,1897.0,1,210852.0,239926,0.59,-0.84,9.98,-0.03,-0.01,-0.0,31.69,6.10869,-37.1098773836229,194.22229814309412,10.032651693346082,0.03162277660168379,-0.8023758857317971,0.5331369216353407
8568205,1899.0,1,210909.0,240076,0.6,-0.83,9.96,-0.03,-0.01,-0.0,31.69,6.148706,-39.80533578451194,245.87399028375535,10.012517166027733,0.03162277660168379,-0.8621068048372883,0.673977258116521
8608188,1901.0,1,210969.0,240191,0.6,-0.83,9.93,-0.03,-0.01,-0.0,31.69,6.188689,-31.81568195874567,290.31977711030964,9.982674992205245,0.03162277660168379,-0.685057377478172,0.7951690199425565
8648192,1906.0,1,211020.0,240411,0.59,-0.83,9.93,-0.03,-0.01,-0.0,31.69,6.228693,-32.82448239692404,297.13150230635364,9.982078941783621,0.03162277660168379,-0.707412230866576,0.8137427709440834
8688875,1898.0,1,211050.0,240202,0.6,-0.83,9.97,-0.03,-0.01,-0.0,31.81,6.269376,-35.83861300649028,236.87176005115907,10.022464766712828,0.03162277660168379,-0.7742048742084301,0.6494305863136467
8727191,1935.0,1,210899.0,239652,0.59,-0.82,9.95,-0.03,-0.01,-0.0,31.81,6.307692,-0.6368293434208353,105.68625541048324,10.001149933882603,0.03162277660168379,0.005860917812064063,0.2917228356221376
8767220,1963.0,1,210697.0,239190,0.6,-0.84,9.97,-0.03,-0.01,0.0,31.81,6.347721,25.553589685367523,-63.353810185945726,10.023297860484842,0.03162277660168379,0.5862363373813286,-0.16920416852261128
8807192,1936.0,1,210571.0,238995,0.6,-0.8049999999999999,9.93,-0.03,-0.01,-0.0,31.81,6.387693,5.167089321914681,-215.16445220803917,9.980627485283678,0.03162277660168379,0.13447481004637324,-0.5831511471731725
8847188,1931.0,1,210527.0,239002,0.57,-0.8049999999999999,9.95,-0.03,-0.01,-0.0,31.81,6.427689,-9.357466993857903,-304.04084165335695,9.998771174499394,0.03162277660168379,-0.1873869920331602,-0.8254932675556537
8887192,1934.0,1,210578.0,239082,0.61,-0.83,9.95,-0.03,-0.01,-0.0,31.81,6.467693,5.720308779495308,-317.37160675711004,10.003174496128715,0.03162277660168379,0.14673406311347054,-0.8618426951339643
8927188,1949.0,1,210623.0,239253,0.6,-0.81,9.95,-0.03,-0.01,-0.0,31.81,6.507689,9.975166232994491,-275.35164252515403,10.00092995675902,0.03162277660168379,0.24102101121718875,-0.7472655020917832
8967192,1924.0,1,210709.0,239444,0.57,-0.81,9.97,-0.03,-0.01,-0.0,31.81,6.547693,-5.9990189733789645,-211.02325985328045,10.019076803777882,0.03162277660168379,-0.11296433095070392,-0.5718592242853575
9007189,1939.0,1,210779.0,239581,0.61,-0.82,9.94,-0.03,-0.01,-0.0,31.81,6.58769,5.6290242687845105,-148.49588849702945,9.992402113606117,0.03162277660168379,0.14471121322528357,-0.4013638221770197
9047192,1973.0,1,210889.0,239804,0.62,-0.83,9.96,-0.03,-0.01,-0.0,31.81,6.627693,39.20977473583831,-94.18227849268887,10.013735566710357,0.03162277660168379,0.8888551736691559,-0.25326514831969105
9087188,1985.0,1,210951.0,239950,0.6,-0.81,9.97,-0.03,-0.01,-0.0,31.81,6.667689,57.73173622336226,-42.96363407956373,10.02082830907705,0.03162277660168379,1.2992988232247997,-0.11360561705767955
9127192,1978.0,1,211029.0,240165,0.6,-0.81,9.96,-0.03,-0.01,0.0,31.81,6.707693,43.02007160801426,9.71545811648502,10.01087908227844,0.03162277660168379,0.9732907317043983,0.03003616432306976
9167188,1936.0,1,211111.0,240416,0.61,-0.83,9.95,-0.03,-0.01,-0.0,31.81,6.747689,11.218552740530507,61.09383999332753,10.003174496128715,0.03162277660168379,0.26857425369126925,0.17013125688435757
9207191,1938.0,1,211212.0,240563,0.59,-0.83,9.96,-0.03,-0.01,-0.0,31.81,6.787692,6.6293645379914246,104.80677228565486,10.011922892232041,0.03162277660168379,0.16687859064734129,0.2893247205924687
9247188,1937.0,1,211293.0,240705,0.6,-0.81,9.99,-0.03,-0.01,-0.0,31.81,6.827689,11.478124911064063,140.21042836923885,10.040727065307571,0.03162277660168379,0.27432633070906437,0.3858610126058464
9287192,1945.0,1,211336.0,240787,0.58,-0.845,9.98,-0.03,-0.01,-0.0,31.81,6.867693,19.019326328720048,176.14670744038474,10.032488474949773,0.03162277660168379,0.441438125752036,0.48384962491458905
9327188,1951.0,1,211390.0,240884,0.62,-0.82,9.94,-0.03,-0.01,-0.0,31.81,6.907689,25.96253502560257,222.02232197853522,9.993017562278173,0.03162277660168379,0.5952984995085908,0.6089401441223365
9367192,1938.0,1,211469.0,241069,0.59,-0.83,9.95,-0.03,-0.01,-0.0,31.81,6.947693,14.672743700764864,272.10811570013186,10.001974805007258,0.03162277660168379,0.3451185627233161,0.7455106948308493
9407188,1938.0,1,211537.0,241309,0.61,-0.83,9.94,-0.03,-0.01,-0.0,31.81,6.987689,17.19178567648771,299.2032515540299,9.993227706802243,0.03162277660168379,0.4009401225832681,0.8193918765019953
9447191,1939.0,1,211625.0,241316,0.59,-0.83,9.96,-0.03,-0.01,-0.0,31.81,7.027692,15.712848548941555,268.871157156816,10.011922892232041,0.03162277660168379,0.36816711673816566,0.736684375468945
9487188,1933.0,1,211532.0,240844,0.6,-0.82,9.96,-0.03,-0.01,-0.0,31.81,7.067689,16.959998401023668,166.68867417952873,10.011693163496373,0.03162277660168379,0.39580375431438347,0.4580601002794315
9527192,1947.0,1,211357.0,240392,0.59,-0.83,9.94,-0.03,-0.01,-0.0,31.81,7.107693,25.573959291176468,15.745382748290844,9.992026821421167,0.03162277660168379,0.5866877245280876,0.04647815448646923
9567188,1922.0,1,211230.0,240116,0.6,-0.83,9.96,-0.03,-0.01,-0.0,31.81,7.147689,7.0102762985120455,-132.9031016557919,10.012517166027733,0.03162277660168379,0.17531953321446944,-0.3588464669000875
9607192,1936.0,1,211217.0,240029,0.62,-0.82,9.96,-0.03,-0.01,-0.0,31.81,7.187693,19.7297823971919,-231.0790020769194,10.012911664446062,0.03162277660168379,0.45718171650450357,-0.6265458640853632
9647188,1943.0,1,211231.0,240152,0.59,-0.83,9.98,-0.03,-0.01,0.0,31.81,7.227689,26.83283558124019,-261.49591771074927,10.031819376364389,0.03162277660168379,0.6145842180598802,-0.7094846499226596
9687192,1901.0,1,211279.0,240352,0.59,-0.82,9.96,-0.03,-0.01,-0.0,31.81,7.267693,-11.401550853673399,-242.46553706884012,10.01109884078666,0.03162277660168379,-0.23268355740965022,-0.6575938966502904
9727875,1909.0,1,211364.0,240472,0.61,-0.81,9.95,-0.03,-0.01,-0.0,31.85,7.308376,-5.548167817240036,-209.0047146471986,10.00153488220683,0.03162277660168379,-0.10297354276897226,-0.5663551919052985
9768192,1925.0,1,211405.0,240564,0.6,-0.81,9.95,-0.03,-0.01,-0.0,31.85,7.348693,11.211817026262672,-187.32601619955935,10.00092995675902,0.03162277660168379,0.268424991360262,-0.5072431849738549
9808188,1906.0,1,211437.0,240730,0.59,-0.81,9.94,-0.03,-0.01,-0.0,31.85,7.388689,-3.4936477541622257,-181.24527224207682,9.990385377952142,0.03162277660168379,-0.0574457128281231,-0.49066262411448364
9848192,1911.0,1,211492.0,240994,0.61,-0.82,10.0,-0.03,-0.01,0.0,31.85,7.428693,-7.261148895454837,-177.0595976921844,10.052089335058657,0.03162277660168379,-0.1409329244379077,-0.4792494101891361
9888188,1904.0,1,211540.0,241185,0.61,-0.84,9.96,-0.03,-0.01,-0.0,31.85,7.468689,-1.5726111611004685,-159.1834847537144,10.013955262532383,0.03162277660168379,-0.014875854839955308,-0.4305060359280684
9928192,1911.0,1,211617.0,241469,0.61,-0.81,9.94,-0.03,-0.01,-0.0,31.85,7.508693,-10.109433020735864,-122.6709840415004,9.991586460617752,0.03162277660168379,-0.20405043670242706,-0.330946221467908
9968188,1879.0,1,211704.0,241636,0.61,-0.83,9.96,-0.03,-0.01,-0.0,31.85,7.548689,-27.601685796264235,-73.63153271154424,10.013121391454316,0.03162277660168379,-0.5916759089275874,-0.19722876633875885
10008191,1897.0,1,211802.0,241829,0.61,-0.83,9.94,-0.03,-0.01,0.0,31.85,7.588692,-23.783033671448642,-19.55849159399157,9.993227706802243,0.03162277660168379,-0.5070551998548222,-0.04978605943155153
10048191,1881.0,1,211932.0,241973,0.58,-0.83,9.96,-0.03,-0.01,0.0,31.85,7.628692,-31.016348492516446,39.61003014937242,10.011338571839433,0.03162277660168379,-0.6673442780684753,0.11155065900035575
10088191,1854.0,1,211980.0,242180,0.59,-0.81,9.96,-0.03,-0.01,-0.0,31.85,7.668692,-65.5792212583353,109.17586476781038,10.010284711235741,0.03162277660168379,-1.433251908676905,0.30123806611517556
10128189,1841.0,1,212038.0,242447,0.61,-0.84,9.95,-0.03,-0.01,-0.0,31.85,7.70869,-77.96012675342917,186.3085728642607,10.004009196317243,0.03162277660168379,-1.7076107577454969,0.5115583114311435
10168192,1840.0,1,212169.0,242740,0.61,-0.84,9.96,-0.03,-0.01,-0.0,31.85,7.748693,-79.71976144998393,249.16613021874213,10.013955262532383,0.03162277660168379,-1.7466039759975247,0.6829540423605683
10208189,1854.0,1,212318.0,242776,0.62,-0.81,9.97,-0.03,-0.01,-0.0,31.85,7.78869,-72.36566791340795,263.8642197850623,10.022045699356994,0.03162277660168379,-1.5836384611216308,0.7230317976936109
10248192,1872.0,1,212258.0,242283,0.6,-0.82,9.96,-0.03,-0.01,-0.0,31.85,7.828693,-48.883822485020225,208.67607585449153,10.011693163496373,0.03162277660168379,-1.063284591342724,0.5725485039462108
10288189,1899.0,1,212084.0,241786,0.6,-0.83,9.94,-0.03,-0.01,-0.0,31.85,7.86869,-35.754221972255586,95.31857427312502,9.992622278461244,0.03162277660168379,-0.772334782636088,0.26345294475508446
10328192,1914.0,1,212001.0,241537,0.59,-0.81,9.97,-0.03,-0.01,-0.0,31.85,7.908693,-8.779573702758308,-33.33556101378743,10.02023452819344,0.03162277660168379,-0.17458097083435745,-0.08735243939688733
10366189,1974.0,1,211958.0,241417,0.58,-0.82,9.98,-0.03,-0.01,-0.0,31.85,7.94669,31.16891423017738,-128.61828974912504,10.03041375018997,0.03162277660168379,0.710671014624535,-0.3471629319434764
10406197,1968.0,1,211957.0,241467,0.62,-0.83,9.96,-0.03,-0.01,-0.0,31.85,7.986698,40.45697244912419,-163.6163744756196,10.013735566710357,0.03162277660168379,0.9164928718418531,-0.44259333944402834
10446189,1970.0,1,212007.0,241688,0.6,-0.82,9.98,-0.03,-0.01,0.0,31.85,8.02669,22.652112393629753,-142.6245821149742,10.031590103268774,0.03162277660168379,0.5219400732126639,-0.3853543415160406
10486192,1955.0,1,212062.0,241914,0.6,-0.82,9.94,-0.03,-0.01,-0.0,31.85,8.066693,17.414713059826315,-89.7794315601745,9.99179663524033,0.03162277660168379,0.40588015708582437,-0.24125976344746336
10526189,1966.0,1,212161.0,242074,0.57,-0.82,9.95,-0.03,-0.01,0.0,31.85,8.10669,19.237917850014814,-29.883516100380657,9.999989999994998,0.03162277660168379,0.44628207825796135,-0.07793963708581608
10566191,1963.0,1,212194.0,242148,0.58,-0.82,9.95,-0.03,-0.01,-0.0,31.85,8.146692,11.332942745366987,23.763503084062272,10.00056498403965,0.03162277660168379,0.27110911756567035,0.06834142206270523
10606189,1973.0,1,212255.0,242317,0.6,-0.83,9.96,-0.03,-0.01,-0.0,31.85,8.18669,28.6377488032676,69.44192697540086,10.012517166027733,0.03162277660168379,0.654580801061047,0.19289425516769546
10646192,2007.0,1,212336.0,242385,0.62,-0.83,9.93,-0.03,-0.01,-0.0,31.85,8.226693,43.30257605850831,110.61833828203831,9.98389703472547,0.03162277660168379,0.9795509843107213,0.3051713052151802
10686189,1994.0,1,212410.0,242536,0.62,-0.82,9.96,-0.03,-0.01,-0.0,31.85,8.26669,47.3385964162197,151.25792811059694,10.012911664446062,0.03162277660168379,1.06898853801775,0.41598458680766354
10726192,2010.0,1,212452.0,242667,0.61,-0.82,9.96,-0.03,-0.01,-0.0,31.85,8.306693,42.33587813568339,194.87264961112018,10.012297438650133,0.03162277660168379,0.9581291158045493,0.5349102559791291
10766876,1933.0,1,212493.0,242866,0.59,-0.82,9.96,-0.03,-0.01,-0.0,31.89,8.347377,-22.985578940508034,242.8447014268957,10.01109884078666,0.03162277660168379,-0.4893837329130975,0.6657171983930771
10807192,1936.0,1,212514.0,242984,0.61,-0.82,9.94,-0.03,-0.01,-0.0,31.89,8.387693,-29.236398549045024,289.0080974227133,9.992402113606117,0.03162277660168379,-0.6279008772538871,0.791592420592171
10846191,2006.0,1,212594.0,243073,0.61,-0.8049999999999999,9.96,-0.03,-0.01,-0.0,31.89,8.426692,39.93284176245764,315.00542209835623,10.011080111556396,0.03162277660168379,0.904878221199996,0.862480165081875
10886192,2003.0,1,212586.0,243101,0.61,-0.8049999999999999,9.96,-0.03,-0.01,0.0,31.89,8.466693,38.6221746034295,294.3943655157251,10.011080111556396,0.03162277660168379,0.8758340504480703,0.8062793316914579
10926191,1989.0,1,212484.0,242708,0.61,-0.81,9.98,-0.03,-0.01,-0.0,31.89,8.506692,19.54027621498641,207.00392827419788,10.031380762387599,0.03162277660168379,0.4529822903751397,0.567989005155476
10966192,1993.0,1,212358.0,242092,0.61,-0.83,9.95,-0.03,-0.01,-0.0,31.89,8.546693,24.129237078911263,54.74037170820461,10.003174496128715,0.03162277660168379,0.5546729156324071,0.15280704979618753
11006191,1997.0,1,212104.0,241580,0.59,-0.83,9.99,-0.03,-0.01,-0.0,31.89,8.586692,30.58937134764592,-133.182397034152,10.041767772658359,0.03162277660168379,0.697828438748301,-0.3596080306250232
11046192,2014.0,1,212012.0,241301,0.6,-0.83,9.96,-0.03,-0.01,0.0,31.89,8.626693,39.06715501985598,-310.4940889391956,10.012517166027733,0.03162277660168379,0.885694743994048,-0.8430895452663367
11086189,1973.0,1,211825.0,241134,0.6,-0.81,9.94,-0.03,-0.01,-0.0,31.89,8.66669,11.107632216404713,-433.82122970290595,9.99098093282136,0.03162277660168379,0.2661162729442797,-1.1793696414754073
11126192,1971.0,1,211794.0,241193,0.61,-0.82,9.96,-0.03,-0.01,-0.0,31.89,8.706693,-7.247636565761779,-480.78996395299043,10.012297438650133,0.03162277660168379,-0.1406334934129078,-1.30744080549192
11166189,1959.0,1,211827.0,241405,0.61,-0.81,10.000000000000004,-0.03,-0.01,-0.0,31.89,8.74669,0.6282267117663206,-456.6925369069852,10.051278525640411,0.03162277660168379,0.03389435393238149,-1.241733573205171
11206192,1968.0,1,211901.0,241639,0.61,-0.81,9.95,-0.03,-0.01,-0.0,31.89,8.786693,-10.182929946997872,-387.34340748776816,10.00153488220683,0.03162277660168379,-0.20567911661661542,-1.0526370631531692
11246192,1946.0,1,211963.0,241769,0.61,-0.83,9.97,-0.03,-0.01,-0.0,31.89,8.826693,-9.674961847265534,-303.6238927964347,10.023068392463458,0.03162277660168379,-0.19442262626852663,-0.8243563596467229
11286192,1959.0,1,212017.0,241942,0.6,-0.83,9.94,-0.03,-0.01,-0.0,31.89,8.866693,-16.027431949033556,-226.917733283222,9.992622278461244,0.03162277660168379,-0.335192328981656,-0.615199198123347
11326189,1911.0,1,212097.0,242077,0.6,-0.83,9.94,-0.03,-0.01,-0.0,31.89,8.90669,-43.17571089996272,-162.0759064830246,9.992622278461244,0.03162277660168379,-0.9367937684015383,-0.4383928956362102
11366192,1945.0,1,212149.0,242341,0.6,-0.82,9.96,-0.03,-0.01,-0.0,31.89,8.946693,-23.453812300039726,-98.99252772435935,10.011693163496373,0.03162277660168379,-0.49975970789065793,-0.26638141019358785
11406189,1965.0,1,212244.0,242606,0.61,-0.82,9.98,-0.03,-0.01,-0.0,31.89,8.98669,10.914805918004443,-20.489576552603534,10.03219317995821,0.03162277660168379,0.26184327358084714,-0.052324878847309714
11446191,1954.0,1,212300.0,242875,0.59,-0.83,9.97,-0.03,-0.01,-0.0,31.89,9.026692,-5.399573171147353,86.1377661996206,10.021871082786888,0.03162277660168379,-0.09968070961586419,0.23841933898820578
11486191,1938.0,1,212465.0,243145,0.61,-0.82,9.93,-0.03,-0.01,0.0,31.89,9.066692,-15.944478117905406,217.12285786310454,9.982454607960909,0.03162277660168379,-0.3333540855960516,0.5955806171446809
11526192,1951.0,1,212558.0,243371,0.6,-0.8049999999999999,10.0,-0.03,-0.01,-0.0,31.89,9.106693,0.7175216270733027,345.34981696311326,10.050274871862959,0.03162277660168379,0.03587311471050139,0.9452212061968828
11566188,1937.0,1,212575.0,243554,0.6,-0.82,9.98,-0.03,-0.01,0.0,31.89,9.146689,-14.435173933010644,425.5767296146264,10.031590103268774,0.03162277660168379,-0.2999081507065376,1.1639785189663212
11606191,1915.0,1,212615.0,243519,0.61,-0.82,9.96,-0.03,-0.01,-0.0,31.89,9.186692,-28.765641225312375,414.8921433613247,10.012297438650133,0.03162277660168379,-0.6174689716407573,1.1348445126886726
11646191,1937.0,1,212588.0,242944,0.61,-0.83,9.95,-0.03,-0.01,-0.0,31.89,9.226692,-7.806905418280325,300.9732616907532,10.003174496128715,0.03162277660168379,-0.15302680008645467,0.8242182202847377
11686192,1955.0,1,212282.0,242269,0.6,-0.81,9.97,-0.03,-0.01,-0.0,31.89,9.266693,14.251732368430575,119.30325471170565,10.02082830907705,0.03162277660168379,0.3357890201765418,0.3288527472274616
11726189,1967.0,1,212078.0,241705,0.61,-0.83,9.96,-0.03,-0.01,0.0,31.89,9.30669,31.471729288609758,-58.658474075869194,10.013121391454316,0.03162277660168379,0.7173813469944144,-0.1564012439672155
11766192,1952.0,1,211944.0,241451,0.6,-0.82,9.97,-0.03,-0.01,-0.0,31.89,9.346693,14.099915839142184,-164.49299294814978,10.021641582096219,0.03162277660168379,0.3324247906166234,-0.44498364333379337
11806875,1916.0,1,211999.0,241549,0.63,-0.82,9.96,-0.03,-0.01,0.0,31.89,9.387376,-12.892623919433582,-172.80265016427532,10.013535839053057,0.03162277660168379,-0.26572549366877507,-0.4676418539336563
11847191,1920.0,1,212050.0,241605,0.59,-0.81,9.96,-0.03,-0.01,-0.0,31.89,9.427692,-10.241053735529515,-112.15776557229303,10.010284711235741,0.03162277660168379,-0.20696713030280076,-0.30227948925958015
11887189,1911.0,1,212112.0,241580,0.59,-0.81,9.96,-0.03,-0.01,-0.0,31.89,9.46769,-17.245469539844194,-39.949976059320214,10.010284711235741,0.03162277660168379,-0.3621838435901401,-0.10538817844106212
11927192,1907.0,1,212119.0,241496,0.62,-0.82,9.97,-0.03,-0.01,-0.0,31.89,9.507693,-11.292965777231707,-2.4187407483992738,10.022858873594899,0.03162277660168379,-0.23027732980292365,-0.003050547461818972
11967189,1924.0,1,212104.0,241257,0.6,-0.83,9.95,-0.03,-0.01,-0.0,31.89,9.54769,-5.376046263651478,-9.663067114586893,10.002569669839845,0.03162277660168379,-0.09915935717800982,-0.022803886040056093
12007192,1902.0,1,212040.0,241143,0.61,-0.82,9.94,-0.03,-0.01,-0.0,31.89,9.587693,-7.333258151753251,-39.65665354076546,9.992402113606117,0.03162277660168379,-0.14253085381173777,-0.10458836646010598
12047191,1935.0,1,212023.0,241191,0.62,-0.8049999999999999,9.97,-0.03,-0.01,-0.0,31.89,9.627692,10.167996822014533,-61.325845312637945,10.021642829396786,0.03162277660168379,0.24529410566005658,-0.16367445123182311
12087192,1907.0,1,212015.0,241497,0.6,-0.82,9.96,-0.03,-0.01,-0.0,31.89,9.667693,-1.6234255243718374,-54.51694275926819,10.011693163496373,0.03162277660168379,-0.01600189285299164,-0.14510839682120205
12127189,1905.0,1,212104.0,241793,0.61,-0.82,9.97,-0.03,-0.01,-0.0,31.89,9.70769,-8.93397280954626,-12.498174026235986,10.022245257426103,0.03162277660168379,-0.17800242989099488,-0.030534463584532
12167192,1902.0,1,212225.0,242033,0.62,-0.81,9.94,-0.03,-0.01,-0.0,31.89,9.747693,-10.13906033316638,67.51986764997675,9.99220195952824,0.03162277660168379,-0.20470697311994945,0.1876533139533723
12207189,1868.0,1,212237.0,242183,0.61,-0.83,9.96,-0.03,-0.01,-0.0,31.89,9.78769,-36.284708377862565,187.2302573077122,10.013121391454316,0.03162277660168379,-0.7840902749743939,0.5140714981587278
12247192,1893.0,1,212325.0,242507,0.62,-0.82,9.98,-0.03,-0.01,-0.0,31.89,9.827693,-18.44681140991052,333.169671637207,10.032806187702421,0.03162277660168379,-0.38880538374646517,0.9120092107133917
12287189,1915.0,1,212477.0,242923,0.59,-0.84,9.97,-0.03,-0.01,0.0,31.89,9.86769,12.391274712398399,459.5570909081126,10.0227042259063,0.03162277660168379,0.29456158156535905,1.2566338671259452
12327191,1910.0,1,212582.0,243023,0.61,-0.82,9.94,-0.03,-0.01,-0.0,31.89,9.907692,6.628646498328453,495.19640876006446,9.992402113606117,0.03162277660168379,0.16686267900537,1.353812745691227
12367189,1905.0,1,212567.0,242358,0.6,-0.81,9.98,-0.03,-0.01,-0.0,31.89,9.94769,-3.1748484522476423,383.59076933937735,10.030777636853486,0.03162277660168379,-0.05038117222632179,1.0494940456106756
12407192,1872.0,1,212180.0,241348,0.61,-0.83,9.95,-0.03,-0.01,-0.0,31.89,9.987693,-19.78901848512172,129.58064010601348,10.003174496128715,0.03162277660168379,-0.4185484739035291,0.3568764257768349
12447189,1886.0,1,211791.0,240569,0.61,-0.84,9.97,-0.03,-0.01,-0.0,31.89,10.02769,-29.20235877571414,-189.10827360288957,10.023901436067694,0.03162277660168379,-0.6271465614215501,-0.5121029237738448
12487192,1889.0,1,211578.0,240204,0.63,-0.845,9.94,-0.03,-0.01,-0.0,31.89,10.067693,5.987814625750443,-460.8104060598349,9.995725336362538,0.03162277660168379,0.15266194909295414,-1.2529618999653753
12527189,1947.0,1,211476.0,240110,0.6,-0.84,9.95,-0.03,-0.01,-0.0,31.89,10.10769,29.139226220696166,-601.777964380577,10.003404420496054,0.03162277660168379,0.6656934589465394,-1.6373426922297656
12567191,1887.0,1,211463.0,240350,0.62,-0.81,9.96,-0.03,-0.01,0.0,31.89,10.147692,5.73016637027296,-595.8337367799752,10.012097682304145,0.03162277660168379,0.14695250571941867,-1.6211343749279896
12607192,1920.0,1,211625.0,240704,0.59,-0.84,9.95,-0.03,-0.01,-0.0,31.89,10.187693,5.751060323698836,-488.2846165633951,10.0028096053059,0.03162277660168379,0.14741551232395883,-1.3278767167217864
12647192,1907.0,1,211753.0,241059,0.61,-0.82,9.99,-0.03,-0.01,-0.0,31.89,10.227693,21.496345612553903,-347.0145449067657,10.042141205938105,0.03162277660168379,0.4963284696047262,-0.9426710515781037
12687192,1935.0,1,211808.0,241395,0.61,-0.83,9.96,-0.03,-0.01,0.0,31.89,10.267693,27.0088589075351,-223.12316827177315,10.013121391454316,0.03162277660168379,0.6184848662984629,-0.6048524352030389
12727191,1928.0,1,211953.0,241638,0.61,-0.84,9.98,-0.03,-0.01,-0.0,31.89,10.307692,37.54011316954018,-134.82209889136004,10.033847716604035,0.03162277660168379,0.8518557453280591,-0.364079058615144
12767189,1934.0,1,211990.0,241895,0.61,-0.83,9.95,-0.03,-0.01,0.0,31.89,10.34769,29.782050100705714,-74.79780848190657,10.003174496128715,0.03162277660168379,0.6799383314191637,-0.20040888813380786
12807878,1909.0,1,212092.0,242122,0.61,-0.83,9.96,-0.03,-0.01,-0.0,31.89,10.388379,16.492295523003556,-25.236195397358372,10.013121391454316,0.03162277660168379,0.38543953472071046,-0.06526763769096267
12846189,1920.0,1,212193.0,242333,0.61,-0.83,9.94,-0.03,-0.01,-0.0,31.89,10.42669,15.894515388397528,32.44011439804365,9.993227706802243,0.03162277660168379,0.3721928243091361,0.09200021824792368
12886192,1916.0,1,212257.0,242548,0.61,-0.83,9.96,-0.03,-0.01,0.0,31.89,10.466693,23.276462274721226,112.52235390601517,10.013121391454316,0.03162277660168379,0.535775564878459,0.310363046086245
12926192,1927.0,1,212315.0,242826,0.6,-0.84,9.98,-0.03,-0.01,-0.0,31.89,10.506693,21.90281301659282,217.26037248628094,10.033244739365227,0.03162277660168379,0.5053357210695085,0.5959555827072128
12966192,1891.0,1,212419.0,243214,0.61,-0.83,9.95,-0.03,-0.01,-0.0,31.89,10.546693,-2.8405687118318936,326.93322633619596,10.003174496128715,0.03162277660168379,-0.04297358762891452,0.8950040939739651
13006189,1897.0,1,212556.0,243534,0.61,-0.83,9.95,-0.03,-0.01,-0.0,31.89,10.58669,-8.290789951968737,400.14194129600406,10.003174496128715,0.03162277660168379,-0.16374960253393742,1.0946246605222074
13046192,1894.0,1,212636.0,243676,0.61,-0.81,9.96,-0.03,-0.01,0.0,31.89,10.626693,-2.3501563860593286,394.23412417366484,10.01148340656868,0.03162277660168379,-0.03210613037214688,1.0785156248469847
13086192,1894.0,1,212534.0,243304,0.6,-0.84,9.95,-0.03,-0.01,0.0,31.89,10.666693,-11.367991671074924,296.25083283762604,10.003404420496054,0.03162277660168379,-0.2319398913896609,0.8113414210722046
13126192,1898.0,1,212264.0,242944,0.6,-0.83,9.97,-0.03,-0.01,0.0,31.89,10.706693,-1.0746305287319957,138.79385041963522,10.022464766712828,0.03162277660168379,-0.0038406851418097505,0.3819983837779142
13166192,1904.0,1,212173.0,242852,0.61,-0.845,9.99,-0.03,-0.01,0.0,31.89,10.746693,-2.165284449582359,-15.994018105512119,10.04421350828426,0.03162277660168379,-0.028009398373263418,-0.04006669449518982
13206192,1869.0,1,212103.0,242790,0.6,-0.83,9.94,-0.03,-0.01,-0.0,31.89,10.786693,-32.869542243824185,-113.45904603847897,9.992622278461244,0.03162277660168379,-0.7084107497341685,-0.3058277327172178
13246189,1870.0,1,212137.0,242787,0.61,-0.82,9.96,-0.03,-0.01,-0.0,31.89,10.82669,-37.278532724391226,-135.55964096825593,10.012297438650133,0.03162277660168379,-0.8061132606112681,-0.36609013840699606
13286192,1887.0,1,212161.0,242869,0.61,-0.83,9.96,-0.03,-0.01,-0.0,31.89,10.866693,-18.056679073131598,-102.41361960047831,10.013121391454316,0.03162277660168379,-0.38016011471137556,-0.2757098118585998
13326189,1904.0,1,212219.0,242887,0.6,-0.8049999999999999,9.96,-0.03,-0.01,-0.0,31.89,10.90669,-4.9013085538984305,-51.023123034416685,10.010475762919564,0.03162277660168379,-0.08863924685902562,-0.13558168578310806
13366192,1905.0,1,212257.0,242871,0.6,-0.84,9.97,-0.03,-0.01,-0.0,31.89,10.946693,-2.7228222873405694,-11.049617992339133,10.023297860484842,0.03162277660168379,-0.04036434604168305,-0.02658463908177825
13406189,1904.0,1,212264.0,242979,0.61,-0.84,9.97,-0.03,-0.01,0.0,31.89,10.98669,-8.214802299113042,6.842208452979263,10.023901436067694,0.03162277660168379,-0.16206572852414278,0.022201581705707154
13446192,1899.0,1,212313.0,243073,0.6,-0.84,9.96,-0.03,-0.01,-0.0,31.89,11.026693,-9.855197997710741,8.868839070748088,10.013351087423231,0.03162277660168379,-0.19841663000406082,0.027727660838842205
13486188,1911.0,1,212326.0,243225,0.6,-0.82,9.93,-0.03,-0.01,-0.0,31.89,11.066689,-6.353296049877813,10.195778790818068,9.981848526199943,0.03162277660168379,-0.12081505325838378,0.03134587021242783
13526192,1905.0,1,212373.0,243442,0.6,-0.83,9.95,-0.03,-0.01,-0.0,31.89,11.106693,-4.30749297671459,27.18255811311695,10.002569669839845,0.03162277660168379,-0.07548039039414758,0.07766426979106947
13566188,1913.0,1,212418.0,243565,0.61,-0.845,9.94,-0.03,-0.01,-0.0,31.89,11.146689,-9.282475794556154,69.25815530238658,9.994484729089338,0.03162277660168379,-0.18572519927181053,0.19239315901400983
13606192,1905.0,1,212419.0,243687,0.61,-0.83,9.96,-0.03,-0.01,0.0,31.89,11.186693,-6.670879934682183,129.15036416377723,10.013121391454316,0.03162277660168379,-0.1278526604149998,0.35570317847412736
13646192,1925.0,1,212456.0,243820,0.61,-0.83,9.96,-0.03,-0.01,-0.0,31.89,11.226693,0.7715061200959653,177.28873315667167,10.013121391454316,0.03162277660168379,0.03706940228244985,0.4869636233043029
13686214,1913.0,1,212559.0,243967,0.62,-0.845,9.98,-0.03,-0.01,-0.0,31.89,11.266715,-4.817317809560562,170.97402031519894,10.034880417822627,0.03162277660168379,-0.08677802564559471,0.46974509193551306
13726189,1922.0,1,212492.0,243660,0.58,-0.845,9.95,-0.03,-0.01,-0.0,31.89,11.30669,-0.5728712380524418,80.11131770746759,10.002645899960669,0.03162277660168379,0.007278219009010735,0.2219868273270212
13766192,1930.0,1,212247.0,242971,0.6,-0.84,9.96,-0.03,-0.01,-0.0,31.89,11.346693,3.534507285194164,-86.58705969666765,10.013351087423231,0.03162277660168379,0.09829705804090068,-0.23255502002482897
13806189,1907.0,1,212031.0,242580,0.62,-0.83,9.96,-0.03,-0.01,-0.0,31.89,11.38669,-12.908213791251438,-277.9114370117049,10.013735566710357,0.03162277660168379,-0.2660709626888535,-0.7542453763585681
13846878,1915.0,1,211913.0,242373,0.6,-0.83,9.96,-0.03,-0.01,-0.0,32.05,11.427379,-19.052142926913707,-425.97005183766316,10.012517166027733,0.03162277660168379,-0.40221943156192985,-1.157961581323126
13885188,1913.0,1,211859.0,242334,0.59,-0.81,9.94,-0.03,-0.01,-0.0,32.05,11.465689,-6.485568319728729,-483.69636800785906,9.990385377952142,0.03162277660168379,-0.12374618521269583,-1.3153657912585668
13925191,1940.0,1,211906.0,242520,0.6,-0.83,9.98,-0.03,-0.01,-0.0,32.05,11.505692,1.9469732338458128,-447.14611125143256,10.03241247158429,0.03162277660168379,0.0631175620534927,-1.2157030261737374
13965188,1921.0,1,211982.0,242801,0.62,-0.82,9.96,-0.03,-0.01,-0.0,32.05,11.545689,-1.2994069907792842,-349.3502368976118,10.012911664446062,0.03162277660168379,-0.008821694927357468,-0.9490398583349341
14005192,1938.0,1,212123.0,243029,0.62,-0.82,9.96,-0.03,-0.01,-0.0,32.05,11.585693,-0.7057572381946629,-234.23938684986626,10.012911664446062,0.03162277660168379,0.0043334868914127345,-0.6351633872754977
14045189,1936.0,1,212157.0,243233,0.62,-0.84,9.95,-0.03,-0.01,0.0,32.05,11.62569,9.186803133964373,-130.8658138185688,10.004623930963122,0.03162277660168379,0.2235510133576815,-0.35329132838260924
14085192,1957.0,1,212245.0,243511,0.61,-0.845,9.97,-0.03,-0.01,-0.0,32.05,11.665693,18.942599155798504,-43.485416055985745,10.024321672811583,0.03162277660168379,0.4397378640980412,-0.11502837681797867
14125192,1950.0,1,212321.0,243811,0.6,-0.81,9.99,-0.03,-0.01,-0.0,32.05,11.705693,19.21428000581018,41.079083222116935,10.040727065307571,0.03162277660168379,0.4457582674807112,0.11555637344066104
14165192,1953.0,1,212429.0,244149,0.63,-0.83,9.95,-0.03,-0.01,-0.0,32.05,11.745693,15.279084838014672,138.41168557040055,10.004414025818804,0.03162277660168379,0.35855498355899074,0.3809563225457107
14205189,1959.0,1,212550.0,244496,0.6,-0.845,9.98,-0.03,-0.01,-0.0,32.05,11.78569,25.55809761884784,253.86941254245156,10.033664584786559,0.03162277660168379,0.5863362324529635,0.6957786341132122
14245192,1968.0,1,212595.0,244726,0.61,-0.82,9.94,-0.03,-0.01,0.0,32.05,11.825693,30.617712906427997,376.0483892743752,9.992402113606117,0.03162277660168379,0.698456483074408,1.0289279943895266
14285192,1960.0,1,212689.0,244836,0.6,-0.84,9.96,-0.03,-0.01,-0.0,32.05,11.865693,24.252000516925122,476.3708708805906,10.013351087423231,0.03162277660168379,0.557393333422086,1.3024805437923257
14325192,1952.0,1,212675.0,244857,0.61,-0.83,9.96,-0.03,-0.01,0.0,32.05,11.905693,15.957873660317322,516.6521158166414,10.013121391454316,0.03162277660168379,0.3735968332945676,1.4123167147976152
14365192,1936.0,1,212682.0,244867,0.61,-0.82,9.97,-0.03,-0.01,-0.0,32.05,11.945693,-1.9131752000234163,466.66877883463786,10.022245257426103,0.03162277660168379,-0.02242269846864441,1.2760255361886605
14405192,1939.0,1,212555.0,244179,0.61,-0.84,9.95,-0.03,-0.01,-0.0,32.05,11.985693,4.149498112457382,325.8250795756281,10.004009196317243,0.03162277660168379,0.1119251545983406,0.8919824744265573
14445192,1952.0,1,212250.0,243418,0.62,-0.84,9.96,-0.03,-0.01,-0.0,32.05,12.025693,14.392992874302667,133.23430884539937,10.014569386648635,0.03162277660168379,0.338919329977006,0.36683900228341926
14485192,1936.0,1,212017.0,242920,0.59,-0.81,9.97,-0.03,-0.01,-0.0,32.05,12.065693,-0.5832875340313124,-46.74924342185873,10.02023452819344,0.03162277660168379,0.007047395586810057,-0.1239279602657815
14525195,1930.0,1,211940.0,242712,0.62,-0.84,9.97,-0.03,-0.01,-0.0,32.05,12.105696,-3.1410554813887015,-157.98960131328977,10.024514950859219,0.03162277660168379,-0.04963232549656189,-0.4272506354077755
14565192,1936.0,1,211887.0,242587,0.59,-0.845,9.96,-0.03,-0.01,-0.0,32.05,12.145693,-4.772442211102606,-181.83308002807794,10.013177567585627,0.03162277660168379,-0.08578358969346926,-0.4922654185813368
14605192,1917.0,1,211942.0,242607,0.57,-0.845,9.97,-0.03,-0.01,0.0,32.05,12.185693,-10.927115437640648,-141.29922678274693,10.021967122276944,0.03162277660168379,-0.2221701458702677,-0.381740452343936
14645192,1922.0,1,211944.0,242810,0.62,-0.845,9.96,-0.03,-0.01,0.0,32.05,12.225693,-19.92690498946808,-79.83029289449549,10.014990014972557,0.03162277660168379,-0.421604016379768,-0.21413112585014699
14685192,1914.0,1,211967.0,242930,0.6,-0.845,9.95,-0.03,-0.01,-0.0,32.05,12.265693,-14.174149207524692,-32.93192446433116,10.003825518270498,0.03162277660168379,-0.29412388530760136,-0.08625183058649812
14725192,1946.0,1,211967.0,242984,0.62,-0.845,9.96,-0.03,-0.01,-0.0,32.05,12.305693,10.33333164927755,-12.377220984123564,10.014990014972557,0.03162277660168379,0.24895789850112227,-0.030204657019760706
14765189,1931.0,1,211923.0,243072,0.62,-0.83,9.96,-0.03,-0.01,-0.0,32.05,12.34569,-3.7685344465365014,-9.052731574596521,10.013735566710357,0.03162277660168379,-0.06353715715535455,-0.021139664419115287
14805191,1931.0,1,211934.0,243099,0.6,-0.82,9.97,-0.03,-0.01,-0.0,32.05,12.385692,5.1546639455769565,-5.947365451371619,10.021641582096219,0.03162277660168379,0.13419946573067573,-0.012672162357397649
14845188,1969.0,1,211925.0,243172,0.61,-0.81,9.96,-0.03,-0.01,0.0,32.05,12.425689,28.782636484346984,11.190920375946362,10.01148340656868,0.03162277660168379,0.6577914884732811,0.034059354899709744
14885878,1921.0,1,212020.0,243254,0.6,-0.82,9.98,-0.03,-0.01,-0.0,31.91,12.466379,-0.5097191169952696,50.417494788589835,10.031590103268774,0.03162277660168379,0.008677659724906027,0.14101972173988198
14926189,1929.0,1,211982.0,243443,0.62,-0.83,9.94,-0.03,-0.01,-0.0,31.91,12.50669,-8.488203270306066,112.29257493413137,9.99384310463197,0.03162277660168379,-0.16812424951200405,0.30973650034543393
14966192,1909.0,1,212013.0,243558,0.62,-0.84,9.96,-0.03,-0.01,-0.0,31.91,12.546693,-16.233314678621696,184.6571378610532,10.014569386648635,0.03162277660168379,-0.339754656733474,0.5070552902930336
15006189,1907.0,1,212076.0,243760,0.61,-0.845,9.96,-0.03,-0.01,-0.0,31.91,12.58669,-22.708642990977744,237.1383265894822,10.014375916651023,0.03162277660168379,-0.4832468773810884,0.6501574418995162
15046192,1923.0,1,212068.0,243830,0.6,-0.84,9.97,-0.03,-0.01,0.0,31.91,12.626693,-6.715932579676602,227.20596020641474,10.023297860484842,0.03162277660168379,-0.1288510196895345,0.6230745378266724
15086189,1894.0,1,212039.0,243243,0.62,-0.84,9.97,-0.03,-0.01,-0.0,31.91,12.66669,-31.585894782754647,122.87532139153566,10.024514950859219,0.03162277660168379,-0.679965331087817,0.3385928167638172
15126192,1892.0,1,211741.0,242289,0.62,-0.84,9.97,-0.03,-0.01,-0.0,31.91,12.706693,-36.356333412225275,-70.68213740172989,10.024514950859219,0.03162277660168379,-0.7856774740690029,-0.18918655492932349
15166189,1923.0,1,211476.0,241681,0.63,-0.84,9.96,-0.03,-0.01,-0.0,31.91,12.74669,-4.453263978245593,-302.7360945682277,10.01519345794179,0.03162277660168379,-0.07871065204370706,-0.8219355715562271
15206192,1925.0,1,211327.0,241394,0.6,-0.84,9.98,-0.03,-0.01,-0.0,31.91,12.786693,1.3673319286027557,-497.3237722842656,10.033244739365227,0.03162277660168379,0.0502728051460016,-1.3525240744456393
15246188,1921.0,1,211228.0,241307,0.62,-0.84,9.96,-0.03,-0.01,-0.0,31.91,12.826689,-8.420653195796389,-590.5742424791332,10.014569386648635,0.03162277660168379,-0.1666273508639757,-1.6067931420205726
15286192,1917.0,1,211254.0,241458,0.61,-0.84,9.94,-0.03,-0.01,-0.0,31.91,12.866693,-5.474217029401073,-561.259645301415,9.994063237742694,0.03162277660168379,-0.10133480535616725,-1.5268600835047623
15326196,1921.0,1,211357.0,241941,0.62,-0.84,9.98,-0.03,-0.01,-0.0,31.91,12.906697,-5.018998435774469,-437.19380734710234,10.034460623272185,0.03162277660168379,-0.09124723547111248,-1.1885657578180044
15366192,1898.0,1,211561.0,242255,0.62,-0.845,9.95,-0.03,-0.01,0.0,31.91,12.946693,-28.952821039456897,-276.2979489880571,10.005044977410146,0.03162277660168379,-0.6216168458328278,-0.7498458264747024
15406191,1900.0,1,211699.0,242522,0.6,-0.84,9.96,-0.03,-0.01,-0.0,31.91,12.986692,-19.280800148517528,-135.18855448252654,10.013351087423231,0.03162277660168379,-0.40728643834712064,-0.3650782849062159
15446192,1931.0,1,211771.0,242728,0.62,-0.845,9.96,-0.03,-0.01,-0.0,31.91,13.026693,-0.3769085286477437,-43.353468534940795,10.014990014972557,0.03162277660168379,0.01162072072941727,-0.11466859125255673
15486189,1904.0,1,211802.0,242885,0.61,-0.845,9.94,-0.03,-0.01,-0.0,31.91,13.06669,-12.611407224221677,4.403331002904636,9.994484729089338,0.03162277660168379,-0.2594937775097442,0.015551415825963021
15526204,1920.0,1,211876.0,243144,0.63,-0.83,9.95,-0.03,-0.01,-0.0,31.91,13.106705,-9.07529067866875,36.78903777550081,10.004414025818804,0.03162277660168379,-0.18113401085174416,0.10385856802171091
15566189,1898.0,1,211959.0,243374,0.61,-0.845,9.96,-0.03,-0.01,-0.0,31.91,13.14669,-23.390550287033086,85.62420224951295,10.014375916651023,0.03162277660168379,-0.49835783198706257,0.23701898758556847
15606192,1912.0,1,212039.0,243530,0.62,-0.83,9.97,-0.03,-0.01,-0.0,31.91,13.186693,-9.014651446754648,166.8995751717292,10.02368195824269,0.03162277660168379,-0.17979025534993948,0.458635170823584
15644191,1981.0,1,212098.0,243758,0.61,-0.84,9.94,-0.03,-0.01,-0.0,31.91,13.224692,52.25486496565985,269.68584550381775,9.994063237742694,0.03162277660168379,1.1779322482714956,0.7389058124860819
15684191,1970.0,1,212183.0,244007,0.61,-0.84,9.95,-0.03,-0.01,-0.0,31.91,13.264692,56.254590142690326,356.9129410314474,10.004009196317243,0.03162277660168379,1.2665655066866897,0.9767507498974616
15724189,1987.0,1,212281.0,244224,0.62,-0.84,9.96,-0.03,-0.01,0.0,31.91,13.30469,54.12139393119327,381.129651214346,10.014569386648635,0.03162277660168379,1.2192942261122817,1.0427832353645097
15764192,1966.0,1,212235.0,243908,0.62,-0.84,9.95,-0.03,-0.01,-0.0,31.91,13.344693,55.49845778077137,311.8349956676988,10.004623930963122,0.03162277660168379,1.2498097367115608,0.8538352609794766
15804189,1963.0,1,212083.0,243074,0.6,-0.84,9.98,-0.03,-0.01,-0.0,31.91,13.38469,29.833596070105987,159.3389062156386,10.033244739365227,0.03162277660168379,0.6810805817048466,0.43801925069266645
15844191,1957.0,1,211808.0,242557,0.61,-0.84,9.97,-0.03,-0.01,-0.0,31.91,13.424692,46.47867452537002,-23.653742987495576,10.023901436067694,0.03162277660168379,1.0499328089875997,-0.06095271361715714
15884189,1969.0,1,211740.0,242354,0.62,-0.82,9.97,-0.03,-0.01,-0.0,31.91,13.46469,38.86499079844333,-167.9033786745447,10.022858873594899,0.03162277660168379,0.881214817777698,-0.4542828521947158
15924878,1904.0,1,211700.0,242313,0.6,-0.84,9.95,-0.03,-0.01,-0.0,31.67,13.505379,-10.340517459648916,-224.816411354964,10.003404420496054,0.03162277660168379,-0.2091712302278255,-0.6094694557825698
15965188,1910.0,1,211713.0,242495,0.62,-0.84,9.96,-0.03,-0.01,0.0,31.67,13.545689,-12.765346281261284,-189.99781791993541,10.014569386648635,0.03162277660168379,-0.2629050419388949,-0.5145284729811481
16005192,1911.0,1,211818.0,242891,0.62,-0.82,9.98,-0.03,-0.01,-0.0,31.67,13.585693,-11.123282356658386,-99.34395927483239,10.032806187702421,0.03162277660168379,-0.2265171728424359,-0.26733966994786534
16045189,1904.0,1,211951.0,243107,0.6,-0.83,9.97,-0.03,-0.01,0.0,31.67,13.62569,-9.15358619851555,-3.5059292652715928,10.022464766712828,0.03162277660168379,-0.18286902681813752,-0.006015019489526922
16085192,1934.0,1,211955.0,243215,0.63,-0.845,9.95,-0.03,-0.01,-0.0,31.67,13.665693,4.575923546517442,60.912827465889706,10.00566964275755,0.03162277660168379,0.12137467275746501,0.16963768418199138
16125189,1894.0,1,211977.0,243383,0.61,-0.845,9.95,-0.03,-0.01,-0.0,31.67,13.70569,-13.198081469981306,86.56749776029939,10.00443026863599,0.03162277660168379,-0.27249438323349984,0.23959110190814578
16165192,1904.0,1,211987.0,243501,0.63,-0.82,9.95,-0.03,-0.01,-0.0,31.67,13.745693,-26.8857514741444,92.03096207034609,10.003589355826236,0.03162277660168379,-0.5758109209666231,0.25448850642462145
16205188,1890.0,1,212006.0,243661,0.62,-0.83,9.97,-0.03,-0.01,-0.0,31.67,13.785689,-18.220215181181548,106.78608541887361,10.02368195824269,0.03162277660168379,-0.3837840482276697,0.29472177761288526
16245192,1915.0,1,212104.0,243772,0.62,-0.84,9.95,-0.03,-0.01,-0.0,31.67,13.825693,-11.275747135389718,154.29355242338792,10.004623930963122,0.03162277660168379,-0.22989576750441773,0.4242619216233291
16285189,1900.0,1,212100.0,243893,0.59,-0.84,9.97,-0.03,-0.01,-0.0,31.67,13.86569,-13.737222880485783,238.227833833845,10.0227042259063,0.03162277660168379,-0.28444166907053664,0.6531282364763302
16325192,1903.0,1,212151.0,244031,0.62,-0.84,9.95,-0.03,-0.01,-0.0,31.67,13.905693,-16.998895736521003,334.36756169570367,10.004623930963122,0.03162277660168379,-0.3567198082724468,0.9152755362085311
16365192,1901.0,1,212206.0,244160,0.62,-0.83,9.95,-0.03,-0.01,0.0,31.67,13.945693,-17.942220495605472,393.96379992925085,10.00378928206707,0.03162277660168379,-0.3776237312773416,1.0777785230026036
16405223,1889.0,1,212223.0,244165,0.6,-0.83,9.96,-0.03,-0.01,0.0,31.67,13.985724,-27.147870147506794,364.7939157836814,10.012517166027733,0.03162277660168379,-0.5816194280723102,0.9982400581834634
16445189,1903.0,1,212121.0,243441,0.58,-0.84,9.96,-0.03,-0.01,-0.0,31.67,14.02569,-18.447629675342995,224.19248004250386,10.01217259140093,0.03162277660168379,-0.38882351637516305,0.6148575841766591
16485192,1911.0,1,211763.0,242548,0.61,-0.84,9.95,-0.03,-0.01,-0.0,31.67,14.065693,-4.288368637957294,2.062035258476267,10.004009196317243,0.03162277660168379,-0.0750565981624139,0.009167329133328564
16525195,1911.0,1,211485.0,242023,0.62,-0.84,9.95,-0.03,-0.01,-0.0,31.67,14.105696,-11.153723427850297,-228.00443281157595,10.004623930963122,0.03162277660168379,-0.22719174202155912,-0.6181623368102755
16565192,1913.0,1,211327.0,241743,0.61,-0.845,9.95,-0.03,-0.01,-0.0,31.67,14.145693,-2.948446864528999,-387.9578718525826,10.00443026863599,0.03162277660168379,-0.04536414992061056,-1.0543125429740527
16605189,1930.0,1,211310.0,241662,0.62,-0.84,9.96,-0.03,-0.01,0.0,31.67,14.18569,7.732179368042913,-437.4690167911681,10.014569386648635,0.03162277660168379,0.191316787645824,-1.1893161802939896
16645191,1920.0,1,211307.0,241847,0.61,-0.83,9.96,-0.03,-0.01,-0.0,31.67,14.225692,2.41215960675891,-389.5205380635536,10.013121391454316,0.03162277660168379,0.07342601630390312,-1.0585735153805629
16685189,1932.0,1,211375.0,242110,0.6,-0.84,9.96,-0.03,-0.01,0.0,31.67,14.26569,10.291373396145582,-292.6547453952454,10.013351087423231,0.03162277660168379,0.24802811044621972,-0.794446431300368
16725192,1936.0,1,211449.0,242135,0.62,-0.83,9.99,-0.03,-0.01,-0.0,31.67,14.305693,15.636984058118488,-197.55047962193473,10.043575060704232,0.03162277660168379,0.3664859719789524,-0.5351225594738291
16765189,1931.0,1,211424.0,242243,0.6,-0.82,9.94,-0.03,-0.01,-0.0,31.67,14.34569,10.48571991953523,-131.5047097809929,9.99179663524033,0.03162277660168379,0.2523347977477903,-0.3550334266294437
16805191,1936.0,1,211455.0,242371,0.6,-0.845,9.94,-0.03,-0.01,0.0,31.67,14.385692,12.237399639434217,-92.22606998823908,9.993879376898642,0.03162277660168379,0.29115173501289743,-0.24793109143644781
16845188,1910.0,1,211511.0,242489,0.6,-0.82,9.96,-0.03,-0.01,-0.0,31.67,14.425689,-9.317570760067559,-57.054451493359785,10.011693163496373,0.03162277660168379,-0.18650289799098954,-0.15202750380728383
16885192,1881.0,1,211525.0,242604,0.6,-0.84,9.97,-0.03,-0.01,-0.0,31.67,14.465693,-46.013376879290604,1.717276514942909,10.023297860484842,0.03162277660168379,-0.999675984281306,0.00822726433715816
16925875,1883.0,1,211605.0,242677,0.6,-0.845,9.98,-0.03,-0.01,0.0,31.85,14.506376,-35.72253407935794,100.59817845387974,10.033664584786559,0.03162277660168379,-0.7716325840910583,0.27784901192128636
16964226,1930.0,1,211640.0,242854,0.6,-0.84,9.95,-0.03,-0.01,-0.0,31.85,14.544727,0.622279440338436,229.9236674852351,10.003404420496054,0.03162277660168379,0.03376256336627955,0.630484998002189
17004188,1931.0,1,211729.0,243004,0.6,-0.84,9.96,-0.03,-0.01,-0.0,31.85,14.584689,11.677134947442978,346.9086490269434,10.013351087423231,0.03162277660168379,0.2787363606988461,0.9494717239106027
17044192,1945.0,1,211732.0,243082,0.61,-0.82,9.96,-0.03,-0.01,-0.0,31.85,14.624693,14.715024617040202,387.9076145475475,10.012297438650133,0.03162277660168379,0.3460555009409177,1.0612649268046574
17084189,1940.0,1,211782.0,242814,0.6,-0.84,9.94,-0.03,-0.01,-0.0,31.85,14.66469,18.823381653038,302.52886670906025,9.993457860020223,0.03162277660168379,0.4370960236559859,0.8284599387092481
17124192,1947.0,1,211463.0,241722,0.6,-0.83,9.97,-0.03,-0.01,-0.0,31.85,14.704693,17.008456075662465,91.75188947408228,10.022464766712828,0.03162277660168379,0.39687756849119865,0.25372755016681997
17164188,1943.0,1,211053.0,240613,0.61,-0.83,9.96,-0.03,-0.01,-0.0,31.85,14.744689,19.404521678053893,-179.9307317696623,10.013121391454316,0.03162277660168379,0.44997399194951937,-0.4870782241697769
17204192,1936.0,1,210829.0,240145,0.61,-0.84,9.99,-0.03,-0.01,0.0,31.85,14.784693,6.907598262243919,-413.1807696934716,10.043794103823515,0.03162277660168379,0.17304420465580228,-1.1230886328118668
17244192,1904.0,1,210764.0,240052,0.61,-0.83,9.96,-0.03,-0.01,-0.0,31.85,14.824693,-22.06251943711932,-525.3336008776806,10.013121391454316,0.03162277660168379,-0.46892888467345073,-1.4288993783395314
17284192,1915.0,1,210797.0,240069,0.59,-0.8049999999999999,9.95,-0.03,-0.01,-0.0,31.85,14.864693,-12.740815758421261,-488.7780442574424,9.99993124976367,0.03162277660168379,-0.2623614495484913,-1.329222161944946
17324189,1952.0,1,210886.0,240508,0.62,-0.82,9.95,-0.03,-0.01,-0.0,31.85,14.90469,23.40709179339257,-334.07908681899426,10.00296456056903,0.03162277660168379,0.5386702937342165,-0.9073995204023467
17364192,1947.0,1,211093.0,240854,0.59,-0.84,9.96,-0.03,-0.01,-0.0,31.85,14.944693,21.390709999592726,-124.25460911693857,10.012756863122165,0.03162277660168379,0.4939876016282952,-0.33526434308679615
17404192,1947.0,1,211292.0,241093,0.62,-0.83,9.96,-0.03,-0.01,-0.0,31.85,14.984693,15.346193707461255,77.50180471561546,10.013735566710357,0.03162277660168379,0.360042105174688,0.2148713840067211
17444192,1954.0,1,211385.0,241096,0.62,-0.84,9.96,-0.03,-0.01,-0.0,31.85,15.024693,31.765946354423065,229.01809056664374,10.014569386648635,0.03162277660168379,0.7239011492483661,0.6280157321826556
17484191,1954.0,1,211473.0,241213,0.59,-0.845,9.95,-0.03,-0.01,-0.0,31.85,15.064692,18.81589764577304,315.5432354959427,10.00323072811979,0.03162277660168379,0.4369301792740504,0.8639466382358211
17524199,1913.0,1,211540.0,241342,0.61,-0.83,9.95,-0.03,-0.01,-0.0,31.85,15.1047,-5.682666335110413,346.9902473357508,10.003174496128715,0.03162277660168379,-0.10595400801676619,0.9496942206535445
17564189,1932.0,1,211570.0,241476,0.62,-0.83,9.96,-0.03,-0.01,0.0,31.85,15.14469,-4.9609225915865505,350.72320463024397,10.013735566710357,0.03162277660168379,-0.08996028422377454,0.9598729958230886
17604192,1925.0,1,211530.0,241549,0.62,-0.83,9.94,-0.03,-0.01,0.0,31.85,15.184693,7.038299645146036,358.48241509247083,9.99384310463197,0.03162277660168379,0.1759405260112078,0.9810302854884942
17644192,1936.0,1,211524.0,241696,0.6,-0.83,9.99,-0.03,-0.01,-0.0,31.85,15.224693,1.780361230018855,386.1893568039856,10.042360280332508,0.03162277660168379,0.059425467187807,1.0565796979431206
17684192,1906.0,1,211518.0,241802,0.6,-0.83,9.97,-0.03,-0.01,-0.0,31.85,15.264693,-15.596681415399814,415.8846739894139,10.022464766712828,0.03162277660168379,-0.32564696732048626,1.1375508779951038
17724189,1926.0,1,211575.0,241977,0.6,-0.82,9.97,-0.03,-0.01,-0.0,31.85,15.30469,-1.6371487420741568,397.72977405318056,10.021641582096219,0.03162277660168379,-0.016305997121925608,1.0880473262268864
17764192,1929.0,1,211553.0,241573,0.59,-0.8049999999999999,9.95,-0.03,-0.01,-0.0,31.85,15.344693,2.2738569276274414,280.3916692064543,9.99993124976367,0.03162277660168379,0.07036125146221617,0.768097727602461
17805189,1904.0,1,211266.0,240358,0.61,-0.83,9.97,-0.03,-0.01,-0.0,31.85,15.38569,-17.730735396922217,52.653801582550415,10.023068392463458,0.03162277660168379,-0.3729372559389354,0.14711753167181668
17845192,1920.0,1,210893.0,239431,0.61,-0.81,9.96,-0.03,-0.01,-0.0,31.85,15.425693,-8.805273159712407,-237.04123977010877,10.01148340656868,0.03162277660168379,-0.17515046661432349,-0.6428032900880347
17885189,1911.0,1,210672.0,238869,0.59,-0.84,9.95,-0.03,-0.01,-0.0,31.85,15.46569,-8.671146026384013,-502.122490285774,10.0028096053059,0.03162277660168379,-0.1721782311874858,-1.3656088937419792
17925192,1907.0,1,210573.0,238714,0.6,-0.845,9.97,-0.03,-0.01,-0.0,31.85,15.505693,-20.348521526420843,-665.6297481872176,10.023718122533175,0.03162277660168379,-0.430946970162307,-1.8114494125238612
17965875,1904.0,1,210537.0,238859,0.59,-0.84,9.96,-0.03,-0.01,0.0,31.57,15.546376,-15.45350273629294,-698.8590490411613,10.012756863122165,0.03162277660168379,-0.3224741511135869,-1.9020568199357781
18004192,1923.0,1,210624.0,239396,0.61,-0.83,9.94,-0.03,-0.01,-0.0,31.57,15.584693,-3.018111306037107,-626.3330190068547,9.993227706802243,0.03162277660168379,-0.046907902596918814,-1.7042977524136744
18044189,1931.0,1,210797.0,239889,0.6,-0.82,9.95,-0.03,-0.01,0.0,31.57,15.62469,13.352217017544062,-500.3194730331494,10.001744847775312,0.03162277660168379,0.3158559065212806,-1.3606925483907082
18084192,1936.0,1,210891.0,240176,0.6,-0.83,9.95,-0.03,-0.01,0.0,31.57,15.664693,9.319566723628878,-367.49867741580334,10.002569669839845,0.03162277660168379,0.22649303287903252,-0.9985257969994416
18124189,1920.0,1,211001.0,240531,0.6,-0.82,9.95,-0.03,-0.01,-0.0,31.57,15.70469,5.058423789744181,-249.26127449025887,10.001744847775312,0.03162277660168379,0.13206679955380154,-0.6761240532705981
18164191,1929.0,1,211170.0,240942,0.62,-0.81,9.98,-0.03,-0.01,-0.0,31.57,15.744692,2.4367474586754616,-141.8806833161891,10.031993819774812,0.03162277660168379,0.07397087909730439,-0.3833259286453931
18204189,1904.0,1,211307.0,241444,0.62,-0.84,9.96,-0.03,-0.01,-0.0,31.57,15.78469,-11.131134099769339,-28.742614711547265,10.014569386648635,0.03162277660168379,-0.22669116619081878,-0.07482870443606758
18244192,1919.0,1,211457.0,241975,0.62,-0.83,9.99,-0.03,-0.01,-0.0,31.57,15.824693,-3.6893756687464725,105.65437222772644,10.043575060704232,0.03162277660168379,-0.061783011533553735,0.2916358987183992
18284189,1911.0,1,211610.0,242504,0.6,-0.845,9.96,-0.03,-0.01,0.0,31.57,15.86469,-8.085596077661526,264.24706924069733,10.013771766921794,0.03162277660168379,-0.1592025397029385,0.7240757256641881
18324192,1906.0,1,211799.0,242933,0.61,-0.83,9.98,-0.03,-0.01,-0.0,31.57,15.904693,-10.91675528931149,429.1773045489951,10.033015498841811,0.03162277660168379,-0.2219405666708389,1.173796322880687
18364188,1933.0,1,211878.0,243179,0.62,-0.82,9.97,-0.03,-0.01,-0.0,31.57,15.944689,10.018244120730737,560.4040015687718,10.022858873594899,0.03162277660168379,0.24197561019254685,1.5316163941621435
18404192,1909.0,1,211982.0,243386,0.6,-0.84,9.93,-0.03,-0.01,-0.0,31.57,15.984693,-4.555753135267798,607.6253466346706,9.983511406313912,0.03162277660168379,-0.08098179506905079,1.6603763602454147
18444189,1906.0,1,211991.0,243078,0.6,-0.82,9.95,-0.03,-0.01,-0.0,31.57,16.02469,-17.74550889799098,536.0146404759115,10.001744847775312,0.03162277660168379,-0.37326463431619106,1.4651131358850473
18484192,1913.0,1,211786.0,242183,0.62,-0.82,9.96,-0.03,-0.01,-0.0,31.57,16.064693,-0.4379088955494311,352.5514174215001,10.012911664446062,0.03162277660168379,0.010268962535112284,0.964858042662958
18524198,1917.0,1,211489.0,241466,0.62,-0.83,9.95,-0.03,-0.01,-0.0,31.57,16.104699,-5.793133146655731,111.88806694460274,10.00378928206707,0.03162277660168379,-0.10840193456687679,0.3086335153512659
18564192,1902.0,1,211241.0,240908,0.63,-0.83,9.96,-0.03,-0.01,0.0,31.57,16.144693,-11.720726846695186,-108.0774944398867,10.014359689965206,0.03162277660168379,-0.23975644542502864,-0.2911536822355318
18604221,1933.0,1,211179.0,240591,0.6,-0.82,9.97,-0.03,-0.01,-0.0,31.57,16.184722,9.804129272255604,-246.40980015351664,10.021641582096219,0.03162277660168379,0.2372308600271077,-0.6683488461397155
18644192,1915.0,1,211150.0,240574,0.61,-0.83,9.97,-0.03,-0.01,-0.0,31.57,16.224693,2.897944516158185,-286.6367554707275,10.023068392463458,0.03162277660168379,0.0841909307675899,-0.7780369838886301
18684189,1910.0,1,211181.0,240719,0.6,-0.84,9.99,-0.03,-0.01,-0.0,31.57,16.26469,-15.624316099736747,-254.2241871126716,10.043191723749976,0.03162277660168379,-0.32625934742403034,-0.6896565873406107
18724192,1913.0,1,211206.0,240846,0.6,-0.84,9.93,-0.03,-0.01,-0.0,31.57,16.304693,2.9836067501767145,-191.26957601581654,9.983511406313912,0.03162277660168379,0.0860891919200784,-0.5179962168385766
18764188,1920.0,1,211258.0,240856,0.62,-0.83,9.98,-0.03,-0.01,-0.0,31.57,16.344689,-6.300264021840525,-129.8636813137831,10.03362845634619,0.03162277660168379,-0.11963987215536596,-0.3505587813290029
18805192,1910.0,1,211296.0,240893,0.61,-0.83,9.97,-0.03,-0.01,-0.0,31.57,16.385693,-2.866051783186609,-79.92834504586716,10.023068392463458,0.03162277660168379,-0.04353828833924488,-0.214398487816804
18843191,1963.0,1,211337.0,241032,0.6,-0.84,9.97,-0.03,-0.01,-0.0,31.57,16.423692,43.23096615128845,-32.49233994802251,10.023297860484842,0.03162277660168379,0.9779641204311339,-0.08505320129434973
18883192,1966.0,1,211424.0,241174,0.6,-0.84,9.96,-0.03,-0.01,-0.0,31.57,16.463693,42.36416794047028,29.53606183853787,10.013351087423231,0.03162277660168379,0.9587560132705532,0.0840816443795983
18923189,1953.0,1,211495.0,241323,0.61,-0.83,9.95,-0.03,-0.01,-0.0,31.57,16.50369,45.408683574681525,119.47861952737486,10.003174496128715,0.03162277660168379,1.0262219838091804,0.3293309201318178
18963192,1963.0,1,211586.0,241402,0.6,-0.83,9.94,-0.03,-0.01,0.0,31.57,16.543693,27.58538622579359,235.4353502284938,9.992622278461244,0.03162277660168379,0.6312606177616076,0.6455138812771859
19003893,1872.0,1,211614.0,241574,0.61,-0.83,9.94,-0.03,-0.01,-0.0,31.77,16.584394,-28.426188241023418,351.62257911194797,9.993227706802243,0.03162277660168379,-0.6099467488017798,0.9623253492577221
19044192,1920.0,1,211650.0,241791,0.62,-0.83,9.98,-0.03,-0.01,-0.0,31.77,16.624693,-17.049769362654434,420.64204904264886,10.03362845634619,0.03162277660168379,-0.3578471595408532,1.1505229661396725
19084189,1902.0,1,211762.0,241881,0.62,-0.82,9.95,-0.03,-0.01,-0.0,31.77,16.66469,-3.9703832585340835,394.33023449830665,10.00296456056903,0.03162277660168379,-0.06801009395044308,1.0787776919720076
19124192,1915.0,1,211596.0,241077,0.59,-0.84,9.95,-0.03,-0.01,-0.0,31.77,16.704693,-11.89616683710014,256.1852612381493,10.0028096053059,0.03162277660168379,-0.2436441670353084,0.7020933335165412
19164189,1915.0,1,211205.0,240182,0.61,-0.83,9.95,-0.03,-0.01,-0.0,31.77,16.74469,-4.303992219498519,41.175961675617145,10.003174496128715,0.03162277660168379,-0.07540281418447128,0.11582053504744032
19204192,1905.0,1,210972.0,239699,0.6,-0.82,9.96,-0.03,-0.01,-0.0,31.77,16.784693,-9.510239920574103,-177.84070404837155,10.011693163496373,0.03162277660168379,-0.19077241520429303,-0.48137927810775905
19244189,1927.0,1,210859.0,239506,0.6,-0.83,9.95,-0.03,-0.01,-0.0,31.77,16.82469,-2.3145613260657627,-330.42783174070155,10.002569669839845,0.03162277660168379,-0.03131734964070264,-0.8974435253033877
19284192,1920.0,1,210796.0,239395,0.61,-0.82,9.98,-0.03,-0.01,-0.0,31.77,16.864693,10.69358558138054,-384.88373950700225,10.03219317995821,0.03162277660168379,0.256941066955431,-1.0459302070621883
19324189,1934.0,1,210779.0,239450,0.61,-0.84,9.97,-0.03,-0.01,-0.0,31.77,16.90469,3.607486450129511,-355.0621944894607,10.023901436067694,0.03162277660168379,0.09991426444842742,-0.9646148375052472
19364192,1903.0,1,210869.0,239543,0.62,-0.84,9.95,-0.03,-0.01,-0.0,31.77,16.944693,-9.231725310322302,-279.2716485761446,10.004623930963122,0.03162277660168379,-0.18460057680784042,-0.7579543091443437
19404189,1919.0,1,210873.0,239681,0.61,-0.83,9.94,-0.03,-0.01,-0.0,31.77,16.98469,-6.687227494830847,-193.21364697167735,9.993227706802243,0.03162277660168379,-0.12821491968507048,-0.5232971778762341
19444192,1909.0,1,210865.0,239991,0.59,-0.82,9.95,-0.03,-0.01,-0.0,31.77,17.024693,-8.36917603796457,-116.1596652615689,10.001149933882603,0.03162277660168379,-0.1654866254314412,-0.3131915983395041
19484189,1905.0,1,210977.0,240218,0.61,-0.81,9.96,-0.03,-0.01,-0.0,31.77,17.06469,-16.927191751145575,-51.91814118726317,10.01148340656868,0.03162277660168379,-0.35513085963625624,-0.13802216067520612
19524199,1912.0,1,211058.0,240353,0.61,-0.83,9.94,-0.03,-0.01,-0.0,31.77,17.1047,-7.057813761959604,6.040797699660051,9.993227706802243,0.03162277660168379,-0.13642705100053537,0.02001634913191777
19564189,1904.0,1,211060.0,240454,0.62,-0.84,9.97,-0.03,-0.01,-0.0,31.77,17.14469,-18.103436180554706,71.43583193123546,10.024514950859219,0.03162277660168379,-0.3811962445956933,0.19833110018192043
19604192,1887.0,1,211155.0,240681,0.61,-0.82,9.96,-0.03,-0.01,0.0,31.77,17.184693,-30.575252430837786,158.51355557895135,10.012297438650133,0.03162277660168379,-0.6575696611909939,0.4357687404660232
19644191,1911.0,1,211136.0,240817,0.6,-0.82,9.97,-0.03,-0.01,-0.0,31.77,17.224692,-12.067868525410809,266.21280309989123,10.021641582096219,0.03162277660168379,-0.2474490484801039,0.7294357556397283
19684192,1911.0,1,211225.0,240995,0.61,-0.84,9.96,-0.03,-0.01,-0.0,31.77,17.264693,-6.472886484917979,362.17830815314073,10.013955262532383,0.03162277660168379,-0.12346515781901012,0.9911079964150921
19724191,1907.0,1,211267.0,241077,0.59,-0.82,9.95,-0.03,-0.01,-0.0,31.77,17.304692,-13.611078508595064,387.03420097917046,10.001149933882603,0.03162277660168379,-0.2816463303368606,1.0588833618305138
19764192,1904.0,1,211294.0,240703,0.59,-0.84,9.99,-0.03,-0.01,-0.0,31.77,17.344693,-17.113723433497167,288.13030463911866,10.042599265130518,0.03162277660168379,-0.3592643713333684,0.7891989146705151
19804189,1920.0,1,210946.0,239602,0.6,-0.82,9.93,-0.03,-0.01,-0.0,31.77,17.38469,5.173686177309035,63.036030584365285,9.981848526199943,0.03162277660168379,0.1346209952873626,0.1754270906705464
19843192,1969.0,1,210534.0,238709,0.6,-0.83,9.98,-0.03,-0.01,0.0,31.77,17.423693,42.79781740959189,-223.93942353485986,10.03241247158429,0.03162277660168379,0.9683656148699319,-0.6070781447808508
19883189,1937.0,1,210323.0,238273,0.59,-0.845,9.99,-0.03,-0.01,-0.0,31.77,17.46369,27.65806822935155,-471.02822174370533,10.043018719488677,0.03162277660168379,0.6328712391214154,-1.2808231478621528
19923192,1935.0,1,210284.0,237972,0.61,-0.845,9.97,-0.03,-0.01,-0.0,31.77,17.503693,6.216876657302239,-594.5986498111349,10.024321672811583,0.03162277660168379,0.15773792640065332,-1.6177666234165529
19963191,1956.0,1,210232.0,237941,0.6,-0.83,9.96,-0.03,-0.01,-0.0,31.77,17.543692,48.267310144819554,-571.0277104501702,10.012517166027733,0.03162277660168379,1.0895686829670692,-1.553494982097712
20003192,1977.0,1,210368.0,238394,0.61,-0.82,9.98,-0.03,-0.01,0.0,31.77,17.583693,50.81148560789289,-439.38454347230544,10.03219317995821,0.03162277660168379,1.145947196812761,-1.1945393087362364
20043879,1909.0,1,210551.0,238942,0.61,-0.83,9.99,-0.03,-0.01,-0.0,31.69,17.62438,-2.4057766201315447,-270.1366114987994,10.042962710276285,0.03162277660168379,-0.03333866569931062,-0.7330455086303614
20084192,1920.0,1,210670.0,239128,0.59,-0.84,9.97,-0.03,-0.01,-0.0,31.69,17.664693,1.0624504716717829,-124.67332964537792,10.0227042259063,0.03162277660168379,0.0435166817219852,-0.33640608186964915
20124189,1917.0,1,210751.0,239149,0.62,-0.84,9.96,-0.03,-0.01,-0.0,31.69,17.70469,-0.6082078675988268,-29.55729766174052,10.014569386648635,0.03162277660168379,0.006495165054180762,-0.07705012673755252
20164192,1891.0,1,210787.0,239149,0.59,-0.82,9.96,-0.03,-0.01,-0.0,31.69,17.744693,-20.903594377800644,25.064215437055626,10.01109884078666,0.03162277660168379,-0.44324729413409814,0.0718881164277597
20204189,1930.0,1,210887.0,239420,0.62,-0.83,9.94,-0.03,-0.01,-0.0,31.69,17.78469,9.18772036684655,69.33743351335553,9.99384310463197,0.03162277660168379,0.22357133908894417,0.19260932947127357
20244192,1907.0,1,210916.0,239752,0.62,-0.84,9.93,-0.03,-0.01,-0.0,31.69,17.824693,-2.53314971021988,133.36394886879395,9.984733346464491,0.03162277660168379,-0.03616123262810219,0.3671924959205028
20284188,1885.0,1,211043.0,240080,0.6,-0.83,9.95,-0.03,-0.01,-0.0,31.69,17.864689,-34.431160039581464,232.2670615097212,10.002569669839845,0.03162277660168379,-0.7430159457191291,0.6368748061427977
20324192,1903.0,1,211178.0,240131,0.6,-0.82,9.96,-0.03,-0.01,-0.0,31.69,17.904693,-7.477874548457828,358.58056173727124,10.011693163496373,0.03162277660168379,-0.14573552960641512,0.9812979051134341
20364188,1918.0,1,211280.0,240261,0.6,-0.82,9.99,-0.03,-0.01,0.0,31.69,17.944689,1.081600722731519,480.73634879366176,10.041538726709168,0.03162277660168379,0.04394104816612015,1.3143840333528178
20404192,1904.0,1,211288.0,240540,0.58,-0.83,9.97,-0.03,-0.01,-0.0,31.69,17.984693,-7.152624141494755,549.3428576682702,10.021287342452565,0.03162277660168379,-0.13852803356754775,1.501455615991102
20444193,1927.0,1,211326.0,240788,0.62,-0.82,9.96,-0.03,-0.01,-0.0,31.69,18.024694,11.126656571303212,515.4854608320853,10.012911664446062,0.03162277660168379,0.2665378495499886,1.4091355589869816
20484192,1926.0,1,211281.0,240178,0.59,-0.83,9.96,-0.03,-0.01,-0.0,31.69,18.064693,15.316649272769373,359.10941084566497,10.011922892232041,0.03162277660168379,0.3593874053143539,0.9827399350506354
20524197,1920.0,1,210962.0,239084,0.58,-0.84,9.95,-0.03,-0.01,-0.0,31.69,18.104698,3.99253028314103,111.65099108184191,10.00222475252381,0.03162277660168379,0.10844677306888825,0.3079870729425279
20564192,1911.0,1,210641.0,238343,0.61,-0.83,9.98,-0.03,-0.01,-0.0,31.69,18.144693,0.8100672330403484,-148.8899027229734,10.033015498841811,0.03162277660168379,0.03792391026414935,-0.4024381934872412
20604189,1909.0,1,210495.0,238117,0.61,-0.82,9.94,-0.03,-0.01,0.0,31.69,18.18469,-7.099772646859099,-335.8690703861801,9.992402113606117,0.03162277660168379,-0.13735685305530337,-0.9122803263827529
20644217,1905.0,1,210432.0,238219,0.62,-0.82,9.95,-0.03,-0.01,-0.0,31.69,18.224718,-5.908257275474525,-401.64835982878094,10.00296456056903,0.03162277660168379,-0.11095306650914584,-1.091642838521939
20684189,1925.0,1,210534.0,238580,0.61,-0.84,9.95,-0.03,-0.01,0.0,31.69,18.26469,9.609395707874242,-359.6820076548343,10.004009196317243,0.03162277660168379,0.23291559596020514,-0.9772118312091418
20724192,1914.0,1,210670.0,238806,0.61,-0.82,9.98,-0.03,-0.01,0.0,31.69,18.304693,0.9722200774439044,-265.22556395153,10.03219317995821,0.03162277660168379,0.04151719088335666,-0.719654396735152
20764192,1902.0,1,210759.0,238895,0.62,-0.82,9.97,-0.03,-0.01,-0.0,31.69,18.344693,-12.585878986698136,-172.70344684928955,10.022858873594899,0.03162277660168379,-0.25892807592446965,-0.4673713530520086
20804192,1906.0,1,210763.0,239081,0.61,-0.83,9.95,-0.03,-0.01,-0.0,31.69,18.384693,-9.253232888873281,-104.7481902630238,10.003174496128715,0.03162277660168379,-0.18507718124520064,-0.2820755610533519
20844189,1903.0,1,210816.0,239432,0.62,-0.83,9.96,-0.03,-0.01,0.0,31.69,18.42469,-12.138281160708994,-53.38861173956421,10.013735566710357,0.03162277660168379,-0.24900938100892836,-0.14203174020278003
20883192,1909.0,1,210939.0,239809,0.61,-0.845,9.97,-0.03,-0.01,0.0,31.69,18.463693,-7.730638637986115,-3.1386902082762185,10.024321672811583,0.03162277660168379,-0.1513367406580891,-0.005013656896886066
20923192,1921.0,1,210992.0,240080,0.58,-0.8049999999999999,9.96,-0.03,-0.01,-0.0,31.69,18.503693,4.127274897007406,51.16208461790185,10.009296928356157,0.03162277660168379,0.11143269176386739,0.1430500188657764
20963192,1931.0,1,211130.0,240209,0.61,-0.83,9.94,-0.03,-0.01,-0.0,31.69,18.543693,12.373227261947356,107.27264429742432,9.993227706802243,0.03162277660168379,0.29416165300307956,0.29604849341507755
21003189,1939.0,1,211155.0,240437,0.62,-0.84,9.93,-0.03,-0.01,-0.0,31.69,18.58369,20.883140245072227,169.2207866709432,9.984733346464491,0.03162277660168379,0.482739938545215,0.4649644931563935
21043192,1930.0,1,211209.0,240778,0.62,-0.84,9.94,-0.03,-0.01,0.0,31.69,18.623693,7.73451193446174,249.63111784784658,9.994678584126655,0.03162277660168379,0.1913684769377178,0.6842219391404901
21083878,1897.0,1,211335.0,241102,0.6,-0.82,9.96,-0.03,-0.01,-0.0,31.61,18.664379,-21.419905635380044,352.0839020702136,10.011693163496373,0.03162277660168379,-0.45468866750107634,0.9635832534613574
21124192,1898.0,1,211416.0,241273,0.6,-0.83,9.97,-0.03,-0.01,-0.0,31.61,18.704693,-28.779218393826927,449.6580697673184,10.022464766712828,0.03162277660168379,-0.61776983948348,1.2296418866017245
21164188,1904.0,1,211510.0,241298,0.63,-0.845,9.96,-0.03,-0.01,-0.0,31.61,18.744689,-15.610135654624335,485.90739426985465,10.015614060056429,0.03162277660168379,-0.3259451110701656,1.3284840899945858
21204192,1913.0,1,211547.0,241033,0.61,-0.84,9.96,-0.03,-0.01,-0.0,31.61,18.784693,-16.633695558760515,407.32667378298675,10.013955262532383,0.03162277660168379,-0.34862703182005267,1.11421550254609
21244191,1910.0,1,211292.0,240153,0.62,-0.82,9.99,-0.03,-0.01,0.0,31.61,18.824692,-13.939965715206137,205.79281732162832,10.042753606456747,0.03162277660168379,-0.2889344172635361,0.5646866298216453
21284191,1934.0,1,210938.0,239454,0.58,-0.81,9.94,-0.03,-0.01,-0.0,31.61,18.864692,4.663041538464354,-64.94267911352085,9.989799797793747,0.03162277660168379,0.12330519326852074,-0.17353658872241365
21324191,1919.0,1,210717.0,239016,0.6,-0.81,9.95,-0.03,-0.01,-0.0,31.61,18.904692,-12.15180712904753,-315.8287047842067,10.00092995675902,0.03162277660168379,-0.24930911426409047,-0.8576356145134609
21364192,1905.0,1,210682.0,238652,0.63,-0.84,9.96,-0.03,-0.01,-0.0,31.61,18.944693,-22.75359770131396,-473.139474099226,10.01519345794179,0.03162277660168379,-0.4842430664395498,-1.2865799678195406
21404192,1936.0,1,210599.0,238526,0.62,-0.83,9.96,-0.03,-0.01,-0.0,31.61,18.984693,-1.858393489801929,-515.3985601374964,10.013735566710357,0.03162277660168379,-0.021208744693427223,-1.4018091820107985
21444192,1904.0,1,210657.0,238857,0.6,-0.82,9.96,-0.03,-0.01,0.0,31.61,19.024693,-24.338667959692437,-473.29731702176883,10.011693163496373,0.03162277660168379,-0.519367965176068,-1.2870103632122332
21484189,1904.0,1,210776.0,239254,0.61,-0.84,9.95,-0.03,-0.01,-0.0,31.61,19.06469,-37.313771209304086,-399.27648501877474,10.004009196317243,0.03162277660168379,-0.8068941396970057,-1.0851753709039802
21522191,1943.0,1,210823.0,239391,0.61,-0.83,9.98,-0.03,-0.01,-0.0,31.61,19.102692,10.940553856194782,-332.2740714666994,10.033015498841811,0.03162277660168379,0.26241384369711124,-0.9024777267681983
21562191,1985.0,1,210921.0,239279,0.6,-0.845,9.93,-0.03,-0.01,-0.0,31.61,19.142692,43.21482253257279,-280.7628033275656,9.983933343126846,0.03162277660168379,0.977606380469999,-0.7620202889454258
21602192,1982.0,1,210919.0,239427,0.62,-0.84,9.96,-0.03,-0.01,-0.0,31.61,19.182693,44.27124250850421,-230.44916739353422,10.014569386648635,0.03162277660168379,1.0010164750583526,-0.6248284735206182
21642192,1982.0,1,211052.0,239776,0.6,-0.84,9.97,-0.03,-0.01,0.0,31.61,19.222693,41.68632512253994,-164.98030902894283,10.023297860484842,0.03162277660168379,0.9437351268377737,-0.44631242382378533
21682192,1984.0,1,211162.0,240153,0.61,-0.81,9.96,-0.03,-0.01,0.0,31.61,19.262693,39.681181945477306,-80.85605717158104,10.01148340656868,0.03162277660168379,0.8993014806481117,-0.21692811042021057
21722192,1979.0,1,211266.0,240394,0.59,-0.83,9.96,-0.03,-0.01,0.0,31.61,19.302693,41.158796258752425,13.932236047899059,10.011922892232041,0.03162277660168379,0.9320451731444387,0.041534188842952714
21762192,1990.0,1,211384.0,240503,0.62,-0.83,9.97,-0.03,-0.01,-0.0,31.61,19.342693,39.76691633151897,111.82661337719026,10.02368195824269,0.03162277660168379,0.9012013406776801,0.3084659479250377
21802192,1980.0,1,211521.0,240697,0.61,-0.83,9.95,-0.03,-0.01,-0.0,31.61,19.382693,43.46088667769842,212.8232734536786,10.003174496128715,0.03162277660168379,0.9830591218450516,0.5838568015278818
21842192,1976.0,1,211598.0,241004,0.62,-0.83,9.95,-0.03,-0.01,0.0,31.61,19.422693,23.231712441607336,316.8525405515024,10.00378928206707,0.03162277660168379,0.5347839158658724,0.8675167626003696
21883191,1920.0,1,211656.0,241299,0.62,-0.83,9.95,-0.03,-0.01,0.0,31.61,19.463692,-18.65023511834632,407.6591427305458,10.00378928206707,0.03162277660168379,-0.3933132199900926,1.115122056358814
21923192,1931.0,1,211726.0,241524,0.6,-0.83,9.96,-0.03,-0.01,0.0,31.61,19.503693,-19.950957833707054,447.22248178880596,10.012517166027733,0.03162277660168379,-0.42213702349018056,1.2230006902302861
21963189,1918.0,1,211819.0,241407,0.62,-0.82,9.96,-0.03,-0.01,-0.0,31.61,19.54369,-25.045013386145392,394.83542880805584,10.012911664446062,0.03162277660168379,-0.5350204647709715,1.0801552216060744
22003192,1905.0,1,211691.0,240547,0.61,-0.845,9.96,-0.03,-0.01,-0.0,31.61,19.583693,-42.80722466096478,241.58226886354532,10.014375916651023,0.03162277660168379,-0.9286281733673826,0.6622748827662653
22043191,1917.0,1,211306.0,239842,0.61,-0.83,9.96,-0.03,-0.01,-0.0,31.61,19.623692,-28.762145655215146,30.00809991219182,10.013121391454316,0.03162277660168379,-0.6173915103767896,0.08536876583428951
22083225,1909.0,1,211150.0,239590,0.6,-0.82,9.919999999999998,-0.03,-0.01,-0.0,31.61,19.663726,-37.614980329674715,-163.8844215603363,9.971900520963892,0.03162277660168379,-0.8135688847410251,-0.4433242320835471
22123874,1895.0,1,211123.0,239512,0.61,-0.84,9.98,-0.03,-0.01,-0.0,31.57,19.704375,-50.52253283211097,-275.61477987129314,10.033847716604035,0.03162277660168379,-1.0995981457077717,-0.7479830071886168
22162192,1920.0,1,211142.0,239458,0.59,-0.83,9.97,-0.03,-0.01,-0.0,31.57,19.742693,-26.303101636441017,-288.0348170619018,10.021871082786888,0.03162277660168379,-0.5628994954698655,-0.7818491235642515
22202191,1943.0,1,211180.0,239718,0.61,-0.84,9.97,-0.03,-0.01,-0.0,31.57,19.782692,-2.0143795591799587,-231.4409676245426,10.023901436067694,0.03162277660168379,-0.024665370582563392,-0.6275328472297491
22242191,1952.0,1,211290.0,240131,0.63,-0.84,9.95,-0.03,-0.01,-0.0,31.57,19.822692,7.873092931647839,-153.84143078842501,10.00524862259804,0.03162277660168379,0.19443940926216063,-0.4159396849182494
22282191,1947.0,1,211326.0,240394,0.61,-0.82,9.95,-0.03,-0.01,-0.0,31.57,19.862692,1.3226386939285673,-89.05584774774971,10.002349723939869,0.03162277660168379,0.04928241034561954,-0.23928674410597275
22322192,1944.0,1,211343.0,240575,0.61,-0.84,9.95,-0.03,-0.01,-0.0,31.57,19.902693,3.1696727659674058,-44.97739722571232,10.004009196317243,0.03162277660168379,0.09021238452205259,-0.11909661004053475
22362191,1953.0,1,211400.0,240691,0.62,-0.84,9.97,-0.03,-0.01,-0.0,31.57,19.942692,8.064010431147073,-12.558645457489968,10.024514950859219,0.03162277660168379,0.198670109952867,-0.030699352988389588
22402192,1937.0,1,211477.0,240883,0.61,-0.83,9.96,-0.03,-0.01,-0.0,31.57,19.982693,-2.904810167454749,20.21290147315174,10.013121391454316,0.03162277660168379,-0.04439716782134567,0.05865988202274985
22442191,1938.0,1,211527.0,241044,0.62,-0.82,9.94,-0.03,-0.01,0.0,31.57,20.022692,-2.0552415866097027,62.878308703907464,9.993017562278173,0.03162277660168379,-0.025570866454466806,0.17499702532721498
22482191,1951.0,1,211572.0,241337,0.62,-0.82,9.96,-0.03,-0.01,-0.0,31.57,20.062692,8.801827392408628,124.19591794094272,10.012911664446062,0.03162277660168379,0.2150200136327893,0.3421937300091736
22522191,1966.0,1,211663.0,241477,0.6,-0.83,9.96,-0.03,-0.01,-0.0,31.57,20.102692,33.09660558629383,209.6160883467506,10.012517166027733,0.03162277660168379,0.7533883410780128,0.5751116663561807
22562192,1982.0,1,211709.0,241591,0.6,-0.845,9.96,-0.03,-0.01,-0.0,31.57,20.142693,38.24288491624134,309.48046492590873,10.013771766921794,0.03162277660168379,0.8674290527617728,0.8474150859922578
22602189,1934.0,1,211769.0,241714,0.62,-0.845,9.95,-0.03,-0.01,-0.0,31.57,20.18269,5.536606909428623,388.4783769953537,10.005044977410146,0.03162277660168379,0.14266325959564904,1.0628212431975634
22642192,1943.0,1,211840.0,241875,0.62,-0.84,9.96,-0.03,-0.01,-0.0,31.57,20.222693,2.4312204324856856,393.7844751061623,10.014569386648635,0.03162277660168379,0.07384840109722599,1.0772895522181722
22682191,1941.0,1,211795.0,241588,0.62,-0.82,9.95,-0.03,-0.01,0.0,31.57,20.262692,12.36783828944511,286.1654485701709,10.00296456056903,0.03162277660168379,0.2940422342502295,0.7838412781939775
22722192,1943.0,1,211515.0,240543,0.61,-0.845,9.97,-0.03,-0.01,0.0,31.57,20.302693,9.325864421706846,74.21548656156476,10.024321672811583,0.03162277660168379,0.22663258884261997,0.20591047420070235
22762192,1936.0,1,211174.0,239643,0.59,-0.83,9.97,-0.03,-0.01,0.0,31.57,20.342693,5.635937722868142,-178.4315670473336,10.021871082786888,0.03162277660168379,0.1448644142416572,-0.48299040332242715
22802192,1918.0,1,210974.0,239181,0.58,-0.83,9.94,-0.03,-0.01,-0.0,31.57,20.382693,-9.043505829806284,-384.27260113507987,9.99144133746478,0.03162277660168379,-0.18042966377832687,-1.0442637963335
22842191,1933.0,1,210944.0,239071,0.62,-0.845,9.97,-0.03,-0.01,-0.0,31.57,20.422692,2.3828466033485567,-480.22627226628487,10.02493516188509,0.03162277660168379,0.07277644492307034,-1.3059037691715791
22882192,1933.0,1,210926.0,239379,0.62,-0.84,9.96,-0.03,-0.01,0.0,31.57,20.462693,10.742935021695926,-457.5147810673131,10.014569386648635,0.03162277660168379,0.2580346425143813,-1.2439756129024357
22923191,1910.0,1,211050.0,239676,0.61,-0.84,9.95,-0.03,-0.01,-0.0,31.57,20.503692,-19.567958297942603,-354.855116324418,10.004009196317243,0.03162277660168379,-0.413649816163723,-0.9640501907873219
22963192,1898.0,1,211171.0,239679,0.64,-0.83,9.96,-0.03,-0.01,-0.0,31.57,20.543693,-20.568958078499485,-226.64689525209016,10.014993759359015,0.03162277660168379,-0.4358318082498694,-0.6144606953201354
23003191,1918.0,1,211202.0,239706,0.64,-0.84,9.94,-0.03,-0.01,-0.0,31.57,20.583692,-9.947103596523043,-112.89456329471012,9.995939175485212,0.03162277660168379,-0.2004532431034092,-0.30428853939604417
23043192,1898.0,1,211256.0,239832,0.6,-0.845,9.96,-0.03,-0.01,0.0,31.57,20.623693,-18.090223701107114,-28.285811068425506,10.013771766921794,0.03162277660168379,-0.3809034582032909,-0.07358312319493626
23083189,1917.0,1,211369.0,240121,0.61,-0.82,9.96,-0.03,-0.01,-0.0,31.57,20.66369,-8.433746462577895,32.404283570200455,10.012297438650133,0.03162277660168379,-0.16691749552311602,0.09190251717288257
23123192,1904.0,1,211443.0,240278,0.59,-0.82,9.96,-0.03,-0.01,-0.0,31.57,20.703693,-11.03808646603846,85.57285137995191,10.01109884078666,0.03162277660168379,-0.2246292457836986,0.2368789675117269
23163878,1911.0,1,211484.0,240430,0.61,-0.82,9.96,-0.03,-0.01,-0.0,31.47,20.744379,-11.727484550722165,152.21542366417268,10.012297438650133,0.03162277660168379,-0.23990619504551666,0.41859542084534807
23202192,1932.0,1,211537.0,240549,0.61,-0.845,9.95,-0.03,-0.01,-0.0,31.47,20.782693,17.709133957506946,247.6093443152735,10.00443026863599,0.03162277660168379,0.41240447622075427,0.6787091039783643
23242192,1931.0,1,211582.0,240939,0.61,-0.82,9.96,-0.03,-0.01,-0.0,31.47,20.822693,10.007569700538507,364.05467452916304,10.012297438650133,0.03162277660168379,0.2417390667798235,0.9962243451891318
23282192,1906.0,1,211666.0,241267,0.61,-0.83,9.95,-0.03,-0.01,-0.0,31.47,20.862693,-7.645818045314023,458.98515110117387,10.003174496128715,0.03162277660168379,-0.14945713014074427,1.2550743403898825
23322192,1936.0,1,211729.0,241394,0.58,-0.82,9.94,-0.03,-0.01,-0.0,31.47,20.902693,16.42428461464382,467.9315496154749,9.990615596648686,0.03162277660168379,0.3839324240696292,1.2794687740440123
23362192,1936.0,1,211711.0,240774,0.59,-0.82,9.96,-0.03,-0.01,-0.0,31.47,20.942693,21.640037694127333,344.701809923523,10.01109884078666,0.03162277660168379,0.4995126627266573,0.9434542644817978
23402192,1923.0,1,211351.0,239397,0.61,-0.83,9.96,-0.03,-0.01,-0.0,31.47,20.982693,5.350643373292625,101.73914708795746,10.013121391454316,0.03162277660168379,0.13854233792613016,0.28096012793081354
23442192,1923.0,1,210898.0,238470,0.62,-0.83,9.92,-0.03,-0.01,-0.0,31.47,21.022693,6.546737543134863,-185.55330711236792,9.973951072669246,0.03162277660168379,0.16504758990027754,-0.5024094818757382
23482191,1923.0,1,210751.0,238174,0.59,-0.83,9.99,-0.03,-0.01,0.0,31.47,21.062692,6.814579615054637,-419.14419358920753,10.041767772658359,0.03162277660168379,0.17098292658572237,-1.1393492932713174
23522192,1919.0,1,210715.0,238119,0.61,-0.84,9.98,-0.03,-0.01,-0.0,31.47,21.102693,0.49146776326333974,-532.536304630239,10.033847716604035,0.03162277660168379,0.03086379790996641,-1.4485392231934429
23562192,1919.0,1,210709.0,238100,0.6,-0.83,9.95,-0.03,-0.01,-0.0,31.47,21.142693,2.4131965604370187,-518.0825985109882,10.002569669839845,0.03162277660168379,0.07344899502850254,-1.40912783609519
23602192,1920.0,1,210756.0,238459,0.6,-0.845,9.96,-0.03,-0.01,0.0,31.47,21.182693,0.4036868634881909,-414.61995442601057,10.013771766921794,0.03162277660168379,0.02891858746941675,-1.1270129042846653
23642189,1911.0,1,210881.0,238929,0.61,-0.83,9.97,-0.03,-0.01,0.0,31.47,21.22269,-8.109331653543354,-275.2702599805117,10.023068392463458,0.03162277660168379,-0.15972851619823594,-0.7470435936799561
23682192,1925.0,1,211025.0,239323,0.62,-0.83,9.96,-0.03,-0.01,-0.0,31.47,21.262693,4.880709670317075,-142.04835437554237,10.013735566710357,0.03162277660168379,0.12812868361481955,-0.38378312273601767
23722240,1941.0,1,211085.0,239458,0.6,-0.83,9.95,-0.03,-0.01,-0.0,31.47,21.302741,18.23242633482841,-37.576533889417185,10.002569669839845,0.03162277660168379,0.42400055006407505,-0.09891643705227193
23762192,1927.0,1,211202.0,239516,0.6,-0.82,9.96,-0.03,-0.01,-0.0,31.47,21.342693,5.830997884189649,32.82291146613955,10.011693163496373,0.03162277660168379,0.14918691564355457,0.09304400337170657
23802189,1925.0,1,211239.0,239671,0.6,-0.845,9.97,-0.03,-0.01,-0.0,31.47,21.38269,-1.629343981419325,78.54121815298953,10.023718122533175,0.03162277660168379,-0.01613304489711749,0.21770558618279234
23842192,1910.0,1,211290.0,240088,0.63,-0.84,9.96,-0.03,-0.01,-0.0,31.47,21.422693,-12.998959898550225,122.05218911878205,10.01519345794179,0.03162277660168379,-0.26808188164512986,0.33634835542172936
23882191,1910.0,1,211344.0,240458,0.61,-0.83,9.93,-0.03,-0.01,0.0,31.47,21.462692,-20.74273353422491,191.46770873578814,9.983281023791728,0.03162277660168379,-0.4396826440427838,0.5256258937693811
23922231,1920.0,1,211475.0,240687,0.6,-0.84,9.99,-0.03,-0.01,-0.0,31.47,21.502732,-5.4860260476686165,302.4701669284928,10.043191723749976,0.03162277660168379,-0.10159649127742697,0.8282998801225133
23962189,1917.0,1,211558.0,240816,0.59,-0.845,9.95,-0.03,-0.01,-0.0,31.47,21.54269,-17.26327413794088,436.73577444117893,10.00323072811979,0.03162277660168379,-0.36257839058380475,1.1944062467530554
24002192,1905.0,1,211617.0,241007,0.6,-0.82,9.95,-0.03,-0.01,-0.0,31.47,21.582693,-25.313699333380118,535.2751471405448,10.001744847775312,0.03162277660168379,-0.5409745015959384,1.4630967355337285
24042189,1918.0,1,211697.0,241214,0.61,-0.82,9.96,-0.03,-0.01,-0.0,31.47,21.62269,-16.75001472148551,522.4870464660297,10.012297438650133,0.03162277660168379,-0.3512046455190263,1.4282270085739786
24082191,1904.0,1,211658.0,240454,0.6,-0.83,9.96,-0.03,-0.01,-0.0,31.47,21.662692,-34.90241954980294,355.16411369393325,10.012517166027733,0.03162277660168379,-0.7534589797030512,0.9719821659371873
24122189,1909.0,1,211254.0,238966,0.62,-0.83,9.97,-0.03,-0.01,0.0,31.47,21.70269,-23.705463171802197,63.68649287120419,10.02368195824269,0.03162277660168379,-0.5053362502179715,0.17720072718756946
24162192,1930.0,1,210840.0,237958,0.62,-0.84,9.96,-0.03,-0.01,0.0,31.47,21.742693,-17.623674800100797,-251.8761375023399,10.014569386648635,0.03162277660168379,-0.3705648105522744,-0.6832540846637762
24202878,1907.0,1,210660.0,237687,0.62,-0.845,9.96,-0.03,-0.01,-0.0,31.61,21.783379,-26.541081344303297,-475.98790905569774,10.014990014972557,0.03162277660168379,-0.5681730870320212,-1.2943468873741166
24241192,1967.0,1,210673.0,237858,0.61,-0.845,9.96,-0.03,-0.01,-0.0,31.61,21.821693,16.22530474592303,-543.9053923948397,10.014375916651023,0.03162277660168379,0.37952306259023755,-1.479539681840371
24281191,1967.0,1,210826.0,238237,0.6,-0.82,9.94,-0.03,-0.01,-0.0,31.61,21.861692,26.824514587351334,-470.49648059650076,9.99179663524033,0.03162277660168379,0.6143998261906944,-1.2793732321093594
24321192,1968.0,1,210915.0,238566,0.59,-0.84,9.98,-0.03,-0.01,-0.0,31.61,21.901693,18.826606735996503,-325.3920600841623,10.032651693346082,0.03162277660168379,0.4371674909690186,-0.8837123241528441
24361189,1970.0,1,211060.0,238785,0.61,-0.81,9.95,-0.03,-0.01,0.0,31.61,21.94169,22.26645119697307,-181.64683309195848,10.00153488220683,0.03162277660168379,0.5133938839143873,-0.49175757304783096
24401191,1939.0,1,211149.0,238918,0.6,-0.83,9.96,-0.03,-0.01,-0.0,31.61,21.981692,-10.08696087608301,-78.35216932183552,10.012517166027733,0.03162277660168379,-0.2035524576373657,-0.21010067858489057
24441189,1959.0,1,211250.0,239118,0.6,-0.845,9.96,-0.03,-0.01,-0.0,31.61,22.02169,8.187889235844535,-16.029165104413746,10.013771766921794,0.03162277660168379,0.20141524408657446,-0.04016253095177925
24481192,1990.0,1,211326.0,239200,0.61,-0.84,9.97,-0.03,-0.01,-0.0,31.61,22.061693,37.586257514588276,25.60087955303669,10.023901436067694,0.03162277660168379,0.8528782964979583,0.07335145579844893
24521192,1961.0,1,211397.0,239376,0.6,-0.83,9.95,-0.03,-0.01,-0.0,31.61,22.101693,10.146829789681705,68.86119680824662,10.002569669839845,0.03162277660168379,0.24482504767141966,0.19131075947264564
24561192,1965.0,1,211468.0,239739,0.59,-0.81,9.93,-0.03,-0.01,-0.0,31.61,22.141693,9.654319057462082,129.92562071982542,9.980435862225658,0.03162277660168379,0.23391109006959074,0.35781709555385677
24601188,1962.0,1,211599.0,240165,0.62,-0.81,9.97,-0.03,-0.01,0.0,31.61,22.181689,10.617751309770664,217.356442231007,10.022045699356994,0.03162277660168379,0.2552605918490597,0.5962175391816693
24641191,1949.0,1,211701.0,240547,0.62,-0.84,9.95,-0.03,-0.01,0.0,31.61,22.221692,-7.037914122863314,327.92532198125565,10.004623930963122,0.03162277660168379,-0.1359860782395768,0.8977092731981269
24681192,1950.0,1,211812.0,240665,0.58,-0.83,9.97,-0.03,-0.01,-0.0,31.61,22.261693,-1.8307223312562724,437.86578310663634,10.021287342452565,0.03162277660168379,-0.020595556327359068,1.1974874778623144
24721192,1957.0,1,211860.0,240735,0.61,-0.83,9.98,-0.03,-0.01,-0.0,31.61,22.301693,0.5809915193253611,499.8373598834926,10.033015498841811,0.03162277660168379,0.03284762976194255,1.3664673769477658
24761191,1949.0,1,211910.0,240873,0.62,-0.81,9.98,-0.03,-0.01,-0.0,31.61,22.341692,-1.1588366117822249,458.7979261016565,10.031993819774812,0.03162277660168379,-0.005706678226030442,1.2545638279393339
24801192,1970.0,1,211851.0,240213,0.6,-0.84,9.96,-0.03,-0.01,-0.0,31.61,22.381693,12.632033730899552,286.1298828875013,10.013351087423231,0.03162277660168379,0.2998967621985555,0.7837443000988413
24841189,1972.0,1,211486.0,239110,0.6,-0.82,9.95,-0.03,-0.01,-0.0,31.61,22.42169,24.85694512734047,10.00871991176902,10.001744847775312,0.03162277660168379,0.5707988074505866,0.030835810727923144
24881192,1970.0,1,211173.0,238370,0.62,-0.82,9.96,-0.03,-0.01,-0.0,31.61,22.461693,13.259922999870954,-286.2253872088718,10.012911664446062,0.03162277660168379,0.31381068612324553,-0.776915292768431
24921192,1957.0,1,211005.0,238007,0.61,-0.83,9.94,-0.03,-0.01,-0.0,31.61,22.501693,11.349543495759509,-504.4671230679287,9.993227706802243,0.03162277660168379,0.27147698749030325,-1.372002079643115
24961192,1978.0,1,210976.0,238019,0.61,-0.83,9.94,-0.03,-0.01,-0.0,31.61,22.541693,25.771361280823296,-585.3135114545792,9.993227706802243,0.03162277660168379,0.5910621204642181,-1.5924485368986832
25001191,1957.0,1,211023.0,238666,0.62,-0.82,9.97,-0.03,-0.01,0.0,31.61,22.581692,10.382436131814933,-536.5178095162298,10.022858873594899,0.03162277660168379,0.25004604583561274,-1.4593957211048243
25041192,1949.0,1,211213.0,239327,0.59,-0.84,10.0,-0.03,-0.01,0.0,31.61,22.621693,3.7263362597683733,-417.7500715908362,10.05254694094984,0.03162277660168379,0.10254795687079998,-1.1355478958105774
25081191,1956.0,1,211359.0,239610,0.6,-0.83,9.96,-0.03,-0.01,-0.0,31.61,22.661692,9.258860030240637,-296.14633225454884,10.012517166027733,0.03162277660168379,0.22514778244194958,-0.8039670539118863
25121192,1942.0,1,211443.0,239642,0.6,-0.84,9.95,-0.03,-0.01,-0.0,31.61,22.701693,1.5956209464888196,-206.6792378002112,10.003404420496054,0.03162277660168379,0.0553316525967829,-0.560014239111013
25161189,1952.0,1,211448.0,239811,0.63,-0.82,9.95,-0.03,-0.01,-0.0,31.61,22.74169,9.549676209449743,-143.3974978414916,10.003589355826236,0.03162277660168379,0.23159222160271636,-0.3874618757803171
25201192,1931.0,1,211570.0,240292,0.61,-0.81,9.97,-0.03,-0.01,0.0,31.61,22.781693,-8.157616690000012,-80.21295643715754,10.021432033397224,0.03162277660168379,-0.16079850474105564,-0.2151745468858187
25241878,1904.0,1,211728.0,240835,0.59,-0.82,9.92,-0.03,-0.01,-0.0,31.55,22.822379,-31.48863205269445,2.6746407281502287,9.97130382648127,0.03162277660168379,-0.6778100048326283,0.01083774024481994
25282192,1920.0,1,211880.0,241150,0.59,-0.82,10.000000000000004,-0.03,-0.01,-0.0,31.55,22.862693,-17.665249623570023,108.4904773228187,10.050895482493093,0.03162277660168379,-0.3714861018683067,0.2993691980418949
25322192,1909.0,1,211983.0,241281,0.6,-0.84,9.94,-0.03,-0.01,-0.0,31.55,22.902693,-21.818033484239074,229.51659363580444,9.993457860020223,0.03162277660168379,-0.463511115781487,0.62937501659499
25362199,1904.0,1,212087.0,241473,0.6,-0.83,9.97,-0.03,-0.01,0.0,31.55,22.9427,-28.323522514274956,352.2043770342607,10.022464766712828,0.03162277660168379,-0.6076716930200633,0.9639117564352339
25402189,1913.0,1,212144.0,241872,0.61,-0.84,9.96,-0.03,-0.01,-0.0,31.55,22.98269,-16.997792633480305,452.526014275217,10.013955262532383,0.03162277660168379,-0.3566953636887473,1.2374620034800214
25442192,1909.0,1,212261.0,242205,0.61,-0.83,9.96,-0.03,-0.01,-0.0,31.55,23.022693,-15.413819966032948,492.24400992960796,10.013121391454316,0.03162277660168379,-0.3215947873884782,1.345762344485091
25482189,1921.0,1,212252.0,242170,0.59,-0.83,9.96,-0.03,-0.01,-0.0,31.55,23.06269,-9.170560775324248,432.9665080046735,10.011922892232041,0.03162277660168379,-0.183245180675261,1.1841284662737837
25522192,1920.0,1,212205.0,241092,0.61,-0.83,9.96,-0.03,-0.01,-0.0,31.55,23.102693,2.235594503917032,266.26877898927876,10.013121391454316,0.03162277660168379,0.06951336238528859,0.7295883869044447
25562231,1922.0,1,211794.0,239986,0.62,-0.83,9.95,-0.03,-0.01,-0.0,31.55,23.142732,-6.098215134931439,34.23154227797672,10.00378928206707,0.03162277660168379,-0.11516250173282834,0.09688496248252586
25602192,1895.0,1,211554.0,239623,0.61,-0.83,9.97,-0.03,-0.01,-0.0,31.55,23.182693,-19.792148145020214,-184.3934195452177,10.023068392463458,0.03162277660168379,-0.41861782665709524,-0.49924677900062414
25642192,1921.0,1,211514.0,239707,0.6,-0.83,9.96,-0.03,-0.01,-0.0,31.55,23.222693,-1.9270285830348834,-317.16046036957897,10.012517166027733,0.03162277660168379,-0.022729687179626704,-0.8612669554624415
25682192,1935.0,1,211553.0,239751,0.62,-0.8049999999999999,9.97,-0.03,-0.01,0.0,31.55,23.262693,19.799106841069637,-336.64685887182605,10.021642829396786,0.03162277660168379,0.4587179348887043,-0.9144011473566572
25722189,1921.0,1,211623.0,239922,0.6,-0.83,9.98,-0.03,-0.01,-0.0,31.55,23.30269,4.834150726043657,-266.19402158231804,10.03241247158429,0.03162277660168379,0.12709694499362054,-0.7222951214226706
25762214,1910.0,1,211689.0,239945,0.62,-0.84,9.94,-0.03,-0.01,-0.0,31.55,23.342715,-7.016818516629112,-154.82340166158667,9.994678584126655,0.03162277660168379,-0.13551860304165098,-0.41861725660000915
25802192,1915.0,1,211823.0,240163,0.62,-0.83,9.96,-0.03,-0.01,-0.0,31.55,23.382693,4.933967942665841,-46.580329570661014,10.013735566710357,0.03162277660168379,0.1293088782549272,-0.12346737741451241
25842191,1918.0,1,211848.0,240442,0.61,-0.82,9.96,-0.03,-0.01,-0.0,31.55,23.422692,-0.23489688676511766,34.73842362732651,10.012297438650133,0.03162277660168379,0.01476767558152382,0.09826709222193587
25882192,1893.0,1,211958.0,240563,0.6,-0.83,9.96,-0.03,-0.01,-0.0,31.55,23.462693,-13.378241300383774,84.45763118415454,10.012517166027733,0.03162277660168379,-0.27648669572931855,0.23383806060012036
25922191,1912.0,1,212023.0,240562,0.62,-0.83,9.97,-0.03,-0.01,-0.0,31.55,23.502692,-5.631341316334256,110.9835574932764,10.02368195824269,0.03162277660168379,-0.10481665396092346,0.30616716022918605
25962191,1904.0,1,212003.0,240635,0.61,-0.84,9.96,-0.03,-0.01,-0.0,31.55,23.542692,-1.70514922311767,132.17239327895538,10.013955262532383,0.03162277660168379,-0.017812876705377866,0.3639434428255552
26002192,1913.0,1,212055.0,240944,0.59,-0.84,9.94,-0.03,-0.01,-0.0,31.55,23.582693,-2.3948565464713103,170.44940275810816,9.992862452770977,0.03162277660168379,-0.03309667864575033,0.46831460030586064
26042191,1914.0,1,212148.0,241392,0.61,-0.84,9.96,-0.03,-0.01,-0.0,31.55,23.622692,6.8432588530643255,240.22496783505937,10.013955262532383,0.03162277660168379,0.1716184538285093,0.6585738862328385
26082192,1922.0,1,212168.0,241683,0.6,-0.82,9.96,-0.03,-0.01,-0.0,31.55,23.662693,9.21735321012622,330.3991095579733,10.011693163496373,0.03162277660168379,0.2242279980691829,0.9044546296472258
26122189,1920.0,1,212229.0,241732,0.6,-0.82,9.95,-0.03,-0.01,-0.0,31.55,23.70269,10.551530998377274,396.2674795237102,10.001744847775312,0.03162277660168379,0.25379316053508566,1.0840600405247192
26162192,1918.0,1,212288.0,241722,0.59,-0.83,9.95,-0.03,-0.01,-0.0,31.55,23.742693,7.205099694506873,375.5311469469554,10.001974805007258,0.03162277660168379,0.1796367879352939,1.0275176130367198
26202192,1899.0,1,212171.0,241151,0.61,-0.83,9.92,-0.03,-0.01,-0.0,31.55,23.782693,-12.740500279431398,226.88773669916523,9.973334447415267,0.03162277660168379,-0.2623544585854637,0.6222068275159398
26242878,1901.0,1,211864.0,240113,0.62,-0.81,9.95,-0.03,-0.01,-0.0,31.63,23.823379,-9.185101145278914,-32.897811840041044,10.002149768924678,0.03162277660168379,-0.18356739290500254,-0.0861588145925556
26281191,1935.0,1,211529.0,239303,0.6,-0.83,9.94,-0.03,-0.01,-0.0,31.63,23.861692,21.886387727061898,-324.58630807082346,9.992622278461244,0.03162277660168379,0.5049717393289882,-0.8815152541252059
