timestamp_us,ecg,leads,ir,red,accX,accY,accZ,gyroX,gyroY,gyroZ,temp,time_sec,ecg_filtered,ppg_filtered,accel_magnitude,gyro_magnitude,ecg_norm,ppg_norm
1948958,1862,1,212267.25,243496,1.26,0.17,9.88,-0.03,-0.01,-0.0,33.32,0.030471,-4.371821098355215,10.799226634912904,9.961470774940818,0.03162277660168379,-0.18783914711721578,0.02532530434522274
1989177,1862,1,212267.25,243499,1.28,0.16,9.92,-0.03,-0.01,-0.0,33.32,0.07069,-12.77021156912768,-22.158360112605436,10.003519380697975,0.03162277660168379,-0.5688379280517922,-0.06630243272644804
2029169,1862,1,212267.25,243788,1.29,0.14,9.959999999999999,-0.03,-0.01,-0.0,33.32,0.110682,-21.776692808718458,-29.177665818435635,10.044167461766056,0.03162277660168379,-0.9774231664657667,-0.08581730505513627
2069172,1862,1,212267.25,244188,1.32,0.16,9.92,-0.03,-0.01,-0.0,33.32,0.150685,-29.823537186315203,-2.3104199661949663,10.008716201391666,0.03162277660168379,-1.342473816218733,-0.011121758999282713
2109169,1862,1,212402.0,244493,1.28,0.17,9.91,-0.03,-0.01,-0.0,33.32,0.190682,-38.42627264809793,42.89123943820238,9.993768058145037,0.03162277660168379,-1.7327428487254344,0.11454659757179422
2149171,1862,1,212499.0,244577,1.29,0.15,9.94,-0.03,-0.01,-0.0,33.32,0.230684,-47.25528746332035,79.14694631261574,10.024480036390914,0.03162277660168379,-2.1332772002966895,0.2153436735921269
2189169,1862,1,212399.0,244598,1.29,0.15,9.91,-0.03,-0.01,-0.0,33.32,0.270682,-54.394529441325076,88.12240151098827,9.994733613258534,0.03162277660168379,-2.4571538406937834,0.24029697661504815
2229172,1862,1,212477.0,244604,1.29,0.14,9.92,-0.03,-0.01,-0.0,33.32,0.310685,-64.08105971692095,75.32987201296221,10.004503985705638,0.03162277660168379,-2.8965899730493256,0.20473155314195404
2269169,1862,1,212455.0,244873,1.3,0.18,9.94,-0.03,-0.01,-0.0,33.32,0.350682,-70.72538383561442,69.55626039203496,10.026265506159309,0.03162277660168379,-3.1980143231276306,0.18867992376723652
2309172,1862,1,212597.0,245265,1.27,0.16,9.94,-0.03,-0.01,-0.0,33.32,0.390685,-78.69743081752873,107.39367143517599,10.022080622305928,0.03162277660168379,-3.5596717373944324,0.2938744083359441
2349169,1862,1,212654.0,245668,1.31,0.14,9.91,-0.03,-0.01,-0.0,33.32,0.430682,-88.198996462614,209.9626331994978,9.99718960508402,0.03162277660168379,-3.9907168216097624,0.5790336929720742
2389172,1862,1,212764.0,245927,1.29,0.15,9.91,-0.03,-0.01,-0.0,33.32,0.470685,-90.70109487377123,361.8854398358746,9.994733613258534,0.03162277660168379,-4.104226243176531,1.001405121083885
2429169,1862,1,212943.0,246198,1.29,0.16,9.9,-0.03,-0.01,-0.0,33.32,0.510682,-105.470947356863,505.788682552212,9.984973710531241,0.03162277660168379,-4.774270796382915,1.4014807876788076
2469172,1872,1,213006.0,246399,1.31,0.17,9.92,-0.03,-0.01,-0.0,33.32,0.550685,-91.98412364815897,563.9583457026313,10.00756713692194,0.03162277660168379,-4.162431729173749,1.563202416192631
2509169,1965,1,213036.0,246425,1.29,0.11,9.9,-0.03,-0.01,-0.0,33.32,0.590682,-16.551525573920777,483.21590271877005,9.984297671844525,0.03162277660168379,-0.7403798480388134,1.3387245928335927
2549172,2021,1,212950.0,245209,1.27,0.15,9.93,-0.03,-0.01,-0.0,33.32,0.630685,44.488410393133506,275.3832307872398,10.012007790648187,0.03162277660168379,2.028738981659187,0.7609141613680975
2589169,2054,1,212273.0,243418,1.3,0.17,9.92,-0.03,-0.01,-0.0,33.32,0.670682,62.88424926522559,18.39176450071791,10.006263038717302,0.03162277660168379,2.863278910342846,0.046433860278161904
2629175,2054,1,212267.25,242785,1.27,0.15,9.91,-0.03,-0.01,-0.0,33.32,0.710688,64.56991499530461,-189.92806833139056,9.992171936070756,0.03162277660168379,2.939750299766614,-0.5327309619457266
2669169,2054,1,212267.25,242827,1.26,0.14,9.9,-0.03,-0.01,-0.0,33.32,0.750682,56.339791356572036,-291.25063641901056,9.980841647877197,0.03162277660168379,2.5663850598184954,-0.8144250586428391
2709172,2054,1,212267.25,242967,1.3,0.14,9.93,-0.03,-0.01,-0.0,33.32,0.790685,53.79992872206066,-292.64254380826026,10.015712655622664,0.03162277660168379,2.4511624381914365,-0.8182947996304705
2749169,2054,1,212267.25,243323,1.3,0.16,9.95,-0.03,-0.01,-0.0,33.32,0.830682,51.11508337209618,-244.88563357242788,10.03584077195329,0.03162277660168379,2.3293625755994025,-0.6855224080119086
2789172,2054,1,212267.25,243723,1.27,0.15,9.9,-0.03,-0.01,-0.0,33.32,0.870685,46.61450462624479,-200.49515997076537,9.982254254425701,0.03162277660168379,2.125190714141319,-0.5621092869354285
2829187,2054,1,212267.25,243904,1.28,0.12,9.95,-0.03,-0.01,-0.0,33.32,0.9107,46.956995297873625,-186.4517543002828,10.03271149789527,0.03162277660168379,2.140728039873692,-0.5230662134172293
2869172,2054,1,212267.25,243986,1.3,0.14,9.93,-0.03,-0.01,-0.0,33.32,0.950685,43.191005172695654,-202.2958534467894,10.015712655622664,0.03162277660168379,1.969881298263155,-0.5671155232728092
2909169,2054,1,212267.25,244205,1.3,0.15,9.91,-0.03,-0.01,-0.0,33.32,0.990682,44.05140562631303,-230.6440654623311,9.996029211641991,0.03162277660168379,2.0089139587574016,-0.6459284089646786
2949172,2054,1,212267.25,244514,1.28,0.16,9.94,-0.03,-0.01,-0.0,33.32,1.030685,43.633108521335885,-246.01413078853687,10.023352732494253,0.03162277660168379,1.9899376218486349,-0.6886598235938165
2989856,2054,1,212267.25,244764,1.29,0.13,9.91,-0.03,-0.01,-0.0,33.32,1.071369,42.489827971084736,-221.6131466980764,9.994453461795697,0.03162277660168379,1.9380719105045616,-0.6208209077272266
3028177,2054,1,212267.25,245154,1.28,0.13,9.91,-0.03,-0.01,-0.0,33.32,1.10969,47.391824629858455,-141.34376982309604,9.993167665960579,0.03162277660168379,2.1604543726725027,-0.39765828919110563
3068169,2039,1,212413.0,245426,1.27,0.16,9.92,-0.03,-0.01,-0.0,33.32,1.149682,28.582831631817815,-15.805517403186396,10.002244748055308,0.03162277660168379,1.307171421873796,-0.04864044169853518
3108172,2023,1,212523.0,245856,1.27,0.15,9.94,-0.03,-0.01,-0.0,33.32,1.189685,21.181718292348297,112.17799260750773,10.021925962608185,0.03162277660168379,0.9714148063996934,0.30717564078973864
3148169,2033,1,212630.0,246107,1.28,0.15,9.92,-0.03,-0.01,-0.0,33.32,1.229682,28.521062330384538,185.820702234794,10.003364434029184,0.03162277660168379,1.3043692148762576,0.511914989173081
3188172,1983,1,212703.0,246123,1.3,0.13,9.89,-0.03,-0.01,-0.0,33.32,1.269685,-14.657760583113063,169.90397300653217,9.9759210101123,0.03162277660168379,-0.6544678920056528,0.46766375524807374
3228169,1950,1,212456.0,244547,1.31,0.16,9.92,-0.03,-0.01,-0.0,33.32,1.309682,-44.37520048571511,76.81014376162422,10.007402260327103,0.03162277660168379,-2.002620066495644,0.2088469621863143
3268172,1962,1,212267.25,243204,1.28,0.17,9.93,-0.03,-0.01,-0.0,33.32,1.349685,-29.846194026631988,-40.77637481524626,10.013600750978641,0.03162277660168379,-1.3435016594192328,-0.11806370302329487
3308169,1966,1,212267.25,243026,1.28,0.14,9.93,-0.03,-0.01,-0.0,33.32,1.389682,-18.358327973079838,-126.35653525478595,10.013136371786814,0.03162277660168379,-0.8223466860734295,-0.355991209651067
3348172,1986,1,212267.25,243261,1.26,0.14,9.95,-0.03,-0.01,-0.0,33.32,1.429685,4.950568776597375,-154.91572750081838,10.030438674355175,0.03162277660168379,0.2350775046048715,-0.43539065652639986
3388169,1994,1,212267.25,243527,1.27,0.15,9.92,-0.03,-0.01,-0.0,33.32,1.469682,17.297945483277818,-139.69695179357666,10.002089781640635,0.03162277660168379,0.7952247720315239,-0.3930798529551743
3428172,1987,1,212267.25,243958,1.29,0.16,9.93,-0.03,-0.01,-0.0,33.32,1.509685,20.567289108731142,-110.90869316101316,10.014719167305692,0.03162277660168379,0.9435408023576747,-0.31304356228427416
3468169,2003,1,212267.25,244305,1.27,0.14,9.94,-0.03,-0.01,-0.0,33.32,1.549682,34.209609123167745,-89.27404479562287,10.021781278794702,0.03162277660168379,1.5624340668121488,-0.252895533630104
3508172,1978,1,212267.25,244439,1.3,0.17,9.92,-0.03,-0.01,-0.0,33.32,1.589685,25.465363920710413,-74.95458973486237,10.006263038717302,0.03162277660168379,1.1657453472386192,-0.21308499551733495
3548169,1966,1,212297.0,244566,1.3,0.14,9.91,-0.03,-0.01,-0.0,33.32,1.629682,8.516934761629399,-53.85601740594811,9.99588415299017,0.03162277660168379,0.3968681593014449,-0.15442735007893066
3588172,1936,1,212344.0,244795,1.27,0.15,9.91,-0.03,-0.01,-0.0,33.32,1.669685,-5.73262927127673,-9.557644008440386,9.992171936070756,0.03162277660168379,-0.249573149218361,-0.03127028334754544
3628169,1920,1,212492.0,245131,1.29,0.15,9.92,-0.03,-0.01,-0.0,33.32,1.709682,-23.344265070731897,69.11156985319703,10.00464891937743,0.03162277660168379,-1.0485371641933627,0.18744360789001382
3668172,1904,1,212571.0,245319,1.29,0.16,9.92,-0.03,-0.01,-0.0,33.32,1.749685,-28.679065086008016,183.923128929305,10.004803846153107,0.03162277660168379,-1.2905540493838665,0.5066394103134528
3708169,1904,1,212660.0,245600,1.3,0.13,9.95,-0.03,-0.01,-0.0,33.32,1.789682,-25.384957956768826,320.5493771410864,10.035407316098334,0.03162277660168379,-1.1411146056147567,0.8864837855749571
3748172,1894,1,212728.0,245821,1.29,0.13,9.91,-0.03,-0.01,-0.0,33.32,1.829685,-29.254505773535303,441.6856013635057,9.994453461795697,0.03162277660168379,-1.3166593133878495,1.2232632405738146
3788169,1872,1,212859.0,246143,1.3,0.15,9.95,-0.03,-0.01,-0.0,33.32,1.869682,-45.72902875030737,493.6157119079038,10.035686324312852,0.03162277660168379,-2.064037420237352,1.367637843954725
3828172,1862,1,212926.0,246242,1.31,0.15,9.91,-0.03,-0.01,-0.0,33.32,1.909685,-51.07541724696676,434.60840505683706,9.997334644794082,0.03162277660168379,-2.3065800248850867,1.2035874224576455
3868169,1871,1,212810.0,245296,1.28,0.14,9.9,-0.03,-0.01,-0.0,33.32,1.949682,-37.410435196322936,269.3589825573657,9.983386199080952,0.03162277660168379,-1.686658681514957,0.7441657192843352
3908172,1869,1,212267.25,243651,1.27,0.15,9.94,-0.03,-0.01,-0.0,33.32,1.989685,-34.315797959658504,56.88257659929977,10.021925962608185,0.03162277660168379,-1.54626832711227,0.15344491171412628
3948169,1862,1,212267.25,243091,1.29,0.16,9.93,-0.03,-0.01,-0.0,33.32,2.029682,-38.479188894065814,-123.04364821558949,10.014719167305692,0.03162277660168379,-1.7351434307507119,-0.34678081615651
3988172,1862,1,212267.25,243297,1.28,0.12,9.94,-0.03,-0.01,-0.0,33.32,2.069685,-33.24035334361082,-220.11744817917844,10.022794021628899,0.03162277660168379,-1.4974800397490207,-0.6166626096188741
4028856,1862,1,212267.25,243612,1.29,0.16,9.93,-0.03,-0.01,-0.0,33.32,2.110369,-31.219150676966425,-238.50798786844211,10.014719167305692,0.03162277660168379,-1.4057867855840473,-0.6677914604101373
4067172,1862,1,212267.25,244062,1.29,0.15,9.92,-0.03,-0.01,-0.0,33.32,2.148685,-27.471235564615963,-220.10183677611855,10.00464891937743,0.03162277660168379,-1.2357600294072222,-0.6166192072440021
4107169,1874,1,212267.25,244436,1.28,0.15,9.89,-0.03,-0.01,-0.0,33.32,2.188682,-12.5138173261263,-207.05138354540216,9.973615192095593,0.03162277660168379,-0.5572064262346131,-0.5803367116095104
4147172,1877,1,212286.0,244599,1.29,0.14,9.92,-0.03,-0.01,-0.0,33.32,2.228685,-8.703659994828167,-215.42645324737092,10.004503985705638,0.03162277660168379,-0.3843560088307642,-0.6036208401013118
4187169,1863,1,212267.25,244761,1.29,0.14,9.92,-0.03,-0.01,-0.0,33.32,2.268682,-18.156666293948984,-233.16463369317586,10.004503985705638,0.03162277660168379,-0.8131981647969463,-0.6529360204410996
4227172,1862,1,212327.0,245052,1.28,0.17,9.93,-0.03,-0.01,-0.0,33.32,2.308685,-20.612955993247578,-233.51601394121172,10.013600750978641,0.03162277660168379,-0.9246294425294813,-0.6539129177250499
4267186,1862,1,212440.0,245406,1.28,0.14,9.92,-0.03,-0.01,-0.0,33.32,2.348699,-16.443099192743244,-189.98889656291823,10.003219481746864,0.03162277660168379,-0.7354610104122998,-0.5329000748497644
4307172,1862,1,212564.0,245791,1.29,0.13,9.94,-0.03,-0.01,-0.0,33.32,2.388685,-16.90777292328057,-88.32334122367459,10.02420071626661,0.03162277660168379,-0.7565412549523897,-0.2502524148365189
4347169,1862,1,212639.0,246093,1.3,0.14,9.91,-0.03,-0.01,-0.0,33.32,2.428682,-16.757634274871883,61.34457692845804,9.99588415299017,0.03162277660168379,-0.7497301115298556,0.16585003700760995
4387172,1872,1,212820.0,246360,1.29,0.16,9.93,-0.03,-0.01,-0.0,33.32,2.468685,-2.751352568019738,214.93388233194645,10.014719167305692,0.03162277660168379,-0.11432547366403628,0.5928546171773356
4427169,1905,1,212915.0,246653,1.29,0.14,9.92,-0.03,-0.01,-0.0,33.32,2.508682,24.39881778220927,301.85394637074023,10.004503985705638,0.03162277660168379,1.117360745451696,0.8345072853478618
4467192,1927,1,213038.0,246832,1.31,0.16,9.92,-0.03,-0.01,-0.0,33.32,2.548705,54.93559584935356,260.02838790901967,10.007402260327103,0.03162277660168379,2.502682761347627,0.7182250677520938
4507169,1939,1,212944.0,245991,1.29,0.15,9.92,-0.03,-0.01,-0.0,33.32,2.588682,57.742252885163374,83.2353553758827,10.00464891937743,0.03162277660168379,2.630008695152016,0.22671015116708673
4547172,1923,1,212546.0,244554,1.3,0.14,9.88,-0.03,-0.01,-0.0,33.32,2.628685,50.1608648370729,-158.44416766385092,9.96614268410803,0.03162277660168379,2.286073793081577,-0.4452003246312957
4587169,1959,1,212267.25,244227,1.28,0.15,9.959999999999999,-0.03,-0.01,-0.0,33.32,2.668682,79.5828426552249,-352.823752906866,10.043032410581974,0.03162277660168379,3.6208221261593807,-0.9856088704750994
4627172,1963,1,212347.0,244601,1.3,0.14,9.9,-0.03,-0.01,-0.0,33.32,2.708685,86.69111203045412,-415.8602567618562,9.98597015817692,0.03162277660168379,3.9432936730518438,-1.1608611498786368
4667193,1926,1,212559.0,245023,1.28,0.15,9.92,-0.03,-0.01,-0.0,33.32,2.748706,48.85861605110349,-343.06091738554574,10.003364434029184,0.03162277660168379,2.226996377991797,-0.9584665152694696
4707172,1906,1,212669.0,245333,1.3,0.15,9.92,-0.03,-0.01,-0.0,33.32,2.788685,26.948750374324337,-202.01529475229432,10.005943233898542,0.03162277660168379,1.2330401976565215,-0.5663355220400338
4747169,1897,1,212764.0,245553,1.31,0.15,9.93,-0.03,-0.01,-0.0,33.32,2.828682,19.633288007697633,-77.72235688065825,10.017160276245958,0.03162277660168379,0.9011691976884543,-0.22077986232458657
4787172,1900,1,212790.0,245617,1.29,0.15,9.91,-0.03,-0.01,-0.0,33.32,2.868685,20.93595034163683,-17.55259543932372,9.994733613258534,0.03162277660168379,0.9602653736673468,-0.053497617928252174
4827169,1905,1,212810.0,245718,1.29,0.16,9.93,-0.03,-0.01,-0.0,33.32,2.908682,24.945726410431547,-12.035438556053082,10.014719167305692,0.03162277660168379,1.1421716328902416,-0.03815897665708731
4867172,1885,1,212896.0,245883,1.3,0.16,9.93,-0.03,-0.01,-0.0,33.32,2.948685,7.243189243763503,-12.472696614667154,10.016012180503775,0.03162277660168379,0.3390838146443727,-0.03937462896604092
4907169,1867,1,212944.0,246189,1.3,0.13,9.93,-0.03,-0.01,-0.0,33.32,2.988682,-15.69860220631028,35.807031931526986,10.01557786650376,0.03162277660168379,-0.7016863907125402,0.09485128711852851
4947172,1862,1,213095.0,246443,1.28,0.15,9.93,-0.03,-0.01,-0.0,33.32,3.028685,-15.534118097943455,162.83685962019044,10.01328118051221,0.03162277660168379,-0.6942244555966434,0.44801596937770316
4987169,1881,1,213255.0,246744,1.27,0.15,9.92,-0.03,-0.01,-0.0,33.32,3.068682,-2.42942536773065,352.9417863217572,10.002089781640635,0.03162277660168379,-0.09972102400351193,0.9765402321910908
5027172,1871,1,213345.0,247002,1.29,0.15,9.92,-0.03,-0.01,-0.0,33.32,3.108685,-8.130937243002093,538.4557855175641,10.00464891937743,0.03162277660168379,-0.3583740458559991,1.4923009300737256
5067859,1862,1,213436.0,247335,1.28,0.16,9.91,-0.03,-0.01,-0.0,33.32,3.149372,-20.56556070685344,619.1789246134834,9.993602953890054,0.03162277660168379,-0.9224793226462662,1.7167250853173661
5108172,1862,1,213489.0,247353,1.28,0.15,9.91,-0.03,-0.01,-0.0,33.32,3.189685,-19.351984986482634,512.9443847925826,9.993447853468792,0.03162277660168379,-0.8674246223864736,1.421374865739399
5148169,1862,1,213259.0,246185,1.31,0.13,9.9,-0.03,-0.01,-0.0,33.32,3.229682,-19.669258205785287,216.65539138366586,9.987141733248809,0.03162277660168379,-0.8818179409870055,0.5976407072501873
5188172,1862,1,212633.0,244537,1.28,0.14,9.91,-0.03,-0.01,-0.0,33.32,3.269685,-20.79645676336124,-167.9501641160258,9.993302757347042,0.03162277660168379,-0.9329540816323153,-0.4716286232259949
5228169,1862,1,212267.25,244063,1.29,0.15,9.89,-0.03,-0.01,-0.0,33.32,3.309682,-19.653627934335574,-477.6608240297068,9.974903508305232,0.03162277660168379,-0.8811088629334497,-1.3326773138435275
5268172,1862,1,212274.0,244383,1.27,0.15,9.9,-0.03,-0.01,-0.0,33.32,3.349685,-21.189636332439562,-581.5974142659245,9.982254254425701,0.03162277660168379,-0.9507909441869382,-1.6216388399178614
5308169,1862,1,212384.0,244803,1.28,0.14,9.92,-0.03,-0.01,-0.0,33.32,3.389682,-20.379160281787122,-460.1517173182391,10.003219481746864,0.03162277660168379,-0.9140231386949357,-1.2839989977274666
5348204,1862,1,212626.0,245318,1.31,0.15,9.92,-0.03,-0.01,-0.0,33.32,3.429717,-20.920719743203765,-211.20708790629962,10.007247373778666,0.03162277660168379,-0.938591357488929,-0.591890281640137
5388169,1862,1,212840.0,245739,1.3,0.12,9.91,-0.03,-0.01,-0.0,33.32,3.469682,-21.451528649697945,18.585029792753783,9.99562404254982,0.03162277660168379,-0.9626718699379884,0.046971170898002
5428172,1862,1,212946.0,245834,1.29,0.13,9.93,-0.03,-0.01,-0.0,33.32,3.509685,-20.44259919531088,126.14717060981188,10.014284797228408,0.03162277660168379,-0.916901088797456,0.34601234867457403
5468169,1862,1,212771.0,245782,1.31,0.14,9.91,-0.03,-0.01,-0.0,33.32,3.549682,-22.293911605735165,106.09609448866208,9.99718960508402,0.03162277660168379,-1.0008871542174207,0.2902669221387215
5508172,1862,1,212733.0,245861,1.3,0.17,9.959999999999999,-0.03,-0.01,-0.0,33.32,3.589685,-20.61236521186584,38.100409658940045,10.04591956965613,0.03162277660168379,-0.924602641324295,0.10122727007575315
5548169,1862,1,212765.0,246105,1.31,0.13,9.92,-0.03,-0.01,-0.0,33.32,3.629682,-21.790708012676344,25.339598370386632,10.006967572646571,0.03162277660168379,-0.9780589758677095,0.06575002865859075
5588172,1862,1,212857.0,246445,1.3,0.16,9.92,-0.03,-0.01,-0.0,33.32,3.669685,-22.546484104891896,127.2491600387799,10.006098140634041,0.03162277660168379,-1.0123452799870198,0.3490760680672218
5628169,1862,1,212955.0,246770,1.28,0.14,9.94,-0.03,-0.01,-0.0,33.32,3.709682,-19.24294991535572,323.27308148718566,10.023053426975235,0.03162277660168379,-0.8624781711202408,0.8940561502507216
5668172,1862,1,213073.0,247013,1.27,0.13,9.9,-0.03,-0.01,-0.0,33.32,3.749685,-25.96136254323633,522.1570916914537,9.981973752720451,0.03162277660168379,-1.1672635975595214,1.4469877691329307
5708169,1862,1,213150.0,247300,1.3,0.17,9.94,-0.03,-0.01,-0.0,33.32,3.789682,-16.142504166314524,611.2722066763474,10.026090963082272,0.03162277660168379,-0.721824309544091,1.6947430549644211
5748172,1901,1,213286.0,247240,1.3,0.13,9.93,-0.03,-0.01,-0.0,33.32,3.829685,10.815393775707456,523.363497955273,10.01557786650376,0.03162277660168379,0.501139339051829,1.4503417852139526
5788169,1895,1,212954.0,245631,1.29,0.15,9.91,-0.03,-0.01,-0.0,33.32,3.869682,17.364657831188136,282.480033181581,9.994733613258534,0.03162277660168379,0.7982512237445718,0.7806444877666849
5828172,1903,1,212267.25,243850,1.28,0.14,9.91,-0.03,-0.01,-0.0,33.32,3.909685,14.617646742571296,-6.564989202690853,9.993302757347042,0.03162277660168379,0.6736311695069037,-0.022950190320463058
5868169,1902,1,212267.25,243348,1.3,0.16,9.91,-0.03,-0.01,-0.0,33.32,3.949682,20.727719317667283,-223.9935168659559,9.996184272010996,0.03162277660168379,0.9508188295275792,-0.6274387445714894
5908172,1908,1,212267.25,243488,1.29,0.11,9.93,-0.03,-0.01,-0.0,33.32,3.989685,25.308139377127226,-307.82052846431395,10.014045136706745,0.03162277660168379,1.1586127472902532,-0.8604921970915409
5948169,1904,1,212267.25,243674,1.29,0.16,9.9,-0.03,-0.01,-0.0,33.32,4.029682,16.8868360479321,-278.58705287643824,9.984973710531241,0.03162277660168379,0.7765745087170803,-0.77921812701544
5988172,1897,1,212267.25,243856,1.3,0.16,9.92,-0.03,-0.01,-0.0,33.32,4.069685,20.665141919196145,-205.76291941292413,10.006098140634041,0.03162277660168379,0.9479799626501062,-0.5767545605964097
6028169,1936,1,212267.25,243965,1.3,0.16,9.92,-0.03,-0.01,-0.0,33.32,4.109682,44.628313039169086,-153.24099208867918,10.006098140634041,0.03162277660168379,2.0350857617683733,-0.43073460518430146
6068858,1926,1,212267.25,243679,1.27,0.14,9.94,-0.03,-0.01,-0.0,33.21,4.150371,53.258707594394586,-146.3692436988492,10.021781278794702,0.03162277660168379,2.4266095681415822,-0.41162996747191105
6107173,1946,1,212267.25,243520,1.28,0.15,9.88,-0.03,-0.01,-0.0,33.21,4.188686,54.266594390941655,-172.81064443192767,9.96369911227753,0.03162277660168379,2.472333048389479,-0.48514159114562033
6147172,1920,1,212267.25,243539,1.28,0.14,9.9,-0.03,-0.01,-0.0,33.21,4.228685,47.219273503051106,-202.25973051238773,9.983386199080952,0.03162277660168379,2.1526264716965624,-0.5670150953270081
6187169,1903,1,212267.25,243777,1.28,0.16,9.94,-0.03,-0.01,-0.0,33.21,4.268682,14.270706346693302,-206.65038354091615,10.023352732494253,0.03162277660168379,0.6578919789624187,-0.5792218629023443
6227172,1872,1,212267.25,244232,1.29,0.16,9.95,-0.03,-0.01,-0.0,33.21,4.308685,-3.0946557272370936,-173.66739809457377,10.034550313790847,0.03162277660168379,-0.12989965845670534,-0.48752351309693065
6267169,1888,1,212269.0,244545,1.27,0.14,9.93,-0.03,-0.01,-0.0,33.21,4.348682,3.8188471565654676,-113.3516012260393,10.011862963504845,0.03162277660168379,0.18373617210907467,-0.3198352651958757
6307178,1872,1,212389.0,244822,1.28,0.15,9.93,-0.03,-0.01,-0.0,33.21,4.388691,-5.891305857228177,-55.31320268055341,10.01328118051221,0.03162277660168379,-0.25677162207107673,-0.15847857477050487
6347169,1862,1,212508.0,245128,1.29,0.15,9.9,-0.03,-0.01,-0.0,33.21,4.428682,-17.952767251104483,-33.497797398092565,9.984818476066554,0.03162277660168379,-0.8039481439711896,-0.09782801092168865
6387172,1865,1,212482.0,244266,1.29,0.15,9.9,-0.03,-0.01,-0.0,33.21,4.468685,-14.535998035741116,-64.9558504868335,9.984818476066554,0.03162277660168379,-0.6489440499940616,-0.1852867875391501
6427169,1862,1,212267.25,242198,1.27,0.15,9.91,-0.03,-0.01,-0.0,33.21,4.508682,-15.51984730552727,-138.85324616655222,9.992171936070756,0.03162277660168379,-0.6935770512478626,-0.39073420677813114
6467172,1862,1,212267.25,241504,1.26,0.15,9.91,-0.03,-0.01,-0.0,33.21,4.548685,-17.261776423035904,-225.6501651686196,9.99090586483528,0.03162277660168379,-0.7726008680797786,-0.6320445106507708
6507169,1862,1,212267.25,241857,1.28,0.14,9.92,-0.03,-0.01,-0.0,33.21,4.588682,-15.011410591263905,-297.14665891138486,10.003219481746864,0.03162277660168379,-0.6705114687423964,-0.8308170112101978
6547172,1862,1,212267.25,242373,1.28,0.16,9.95,-0.03,-0.01,-0.0,33.21,4.628685,-15.836104345289833,-338.6917477174824,10.033269656497826,0.03162277660168379,-0.7079242701621115,-0.9463194751165077
6587169,1862,1,212267.25,243332,1.28,0.17,9.9,-0.03,-0.01,-0.0,33.21,4.668682,-15.29876861805833,-346.5393179901108,9.983851962043508,0.03162277660168379,-0.6835476639849798,-0.968137064829626
6627172,1862,1,212267.25,244053,1.29,0.17,9.93,-0.03,-0.01,-0.0,33.21,4.708685,-14.641835027967463,-319.981281540699,10.01488392344115,0.03162277660168379,-0.6537454182034051,-0.8943011738838246
6667169,1862,1,212352.0,244412,1.28,0.15,9.95,-0.03,-0.01,-0.0,33.21,4.748682,-15.319156699493897,-259.1686148806896,10.033115169278183,0.03162277660168379,-0.6844725833727575,-0.7252315428444683
6707172,1862,1,212509.0,244615,1.29,0.17,9.9,-0.03,-0.01,-0.0,33.21,4.788685,-14.455655303108363,-167.3586160998196,9.985138957470747,0.03162277660168379,-0.6452992464693196,-0.46998401840375953
6747169,1862,1,212647.0,245128,1.27,0.15,9.93,-0.03,-0.01,-0.0,33.21,4.828682,-14.836883907752727,-49.04390973890263,10.012007790648187,0.03162277660168379,-0.6625939452729026,-0.14104886640977016
6787171,1862,1,212866.0,245787,1.29,0.17,9.92,-0.03,-0.01,-0.0,33.21,4.868684,-15.161744722641377,97.11965192144204,10.004968765568437,0.03162277660168379,-0.677331480384747,0.2653108740612595
6827169,1862,1,213098.0,246322,1.27,0.17,9.93,-0.03,-0.01,-0.0,33.21,4.908682,-14.402303883529953,279.25441803571806,10.012327401758295,0.03162277660168379,-0.6428789224928096,0.7716767250860092
6867172,1862,1,213257.0,246860,1.27,0.15,9.91,-0.03,-0.01,-0.0,33.21,4.948685,-15.937750618917315,495.8873995515586,9.992171936070756,0.03162277660168379,-0.7125355235294547,1.3739535247634065
6907169,1862,1,213445.0,247285,1.28,0.15,9.92,-0.03,-0.01,-0.0,33.21,4.988682,-15.056165150088294,709.5402053779676,10.003364434029184,0.03162277660168379,-0.6725417901965725,1.9679449254948638
6947172,1862,1,213585.0,247763,1.28,0.16,9.91,-0.03,-0.01,-0.0,33.21,5.028685,-15.754563386840907,838.7517012567025,9.993602953890054,0.03162277660168379,-0.7042251082961093,2.327175019060664
6987169,1862,1,213717.0,247939,1.29,0.16,9.94,-0.03,-0.01,-0.0,33.21,5.068682,-17.494747775234753,793.9116884434331,10.024634656684501,0.03162277660168379,-0.783169774287384,2.202512101966045
7027172,1862,1,213685.0,247041,1.3,0.16,9.9,-0.03,-0.01,-0.0,33.21,5.108685,-14.549440080871637,544.8610958606636,9.986270575144657,0.03162277660168379,-0.6495538576501618,1.5101087901114196
7067169,1862,1,213007.0,245142,1.29,0.15,9.94,-0.03,-0.01,-0.0,33.21,5.148682,-20.83761063419245,166.3082539128193,10.024480036390914,0.03162277660168379,-0.9348210553902035,0.45766704019043636
7107858,1862,1,212542.0,244457,1.3,0.15,9.93,-0.03,-0.01,-0.0,31.99,5.189371,-13.997182820363145,-189.27784916031285,10.015857427100288,0.03162277660168379,-0.6245003258159065,-0.530923241262083
7146169,1899,1,212544.0,244657,1.28,0.14,9.94,-0.03,-0.01,-0.0,31.99,5.227682,14.085744757493636,-381.8235386984954,10.023053426975235,0.03162277660168379,0.6495010687933761,-1.0662332428845955
7186172,1898,1,212700.0,244956,1.27,0.14,9.91,-0.03,-0.01,-0.0,31.99,5.267685,20.06952756126719,-367.6370967153068,9.992026821421167,0.03162277660168379,0.9209595061629015,-1.0267925039137424
7226169,1905,1,212779.0,245362,1.28,0.15,9.95,-0.03,-0.01,-0.0,31.99,5.307682,20.233546064246582,-212.62360400054692,10.033115169278183,0.03162277660168379,0.9284003187690001,-0.5958284390433412
7266172,1921,1,212951.0,245787,1.28,0.15,9.92,-0.03,-0.01,-0.0,31.99,5.347685,39.07101676397977,-33.02012953445977,10.003364434029184,0.03162277660168379,1.782975180162533,-0.09650001243224135
7306169,1933,1,213074.0,245952,1.29,0.16,9.92,-0.03,-0.01,-0.0,31.99,5.387682,49.107593177725924,82.68603582880561,10.004803846153107,0.03162277660168379,2.2382913972045695,0.22518294872312447
7346172,1925,1,213079.0,245878,1.28,0.18,9.92,-0.03,-0.01,-0.0,31.99,5.427685,39.19521455890886,115.0826917029851,10.003859255307423,0.03162277660168379,1.788609498860553,0.3152512018747068
7386169,1909,1,213059.0,245889,1.28,0.17,9.9,-0.03,-0.01,-0.0,31.99,5.467682,24.62527871041589,101.87231508459462,9.983851962043508,0.03162277660168379,1.1276343017808887,0.2785240918262511
7426172,1903,1,213068.0,246055,1.29,0.16,9.91,-0.03,-0.01,-0.0,31.99,5.507685,15.037729478709077,95.8245258050226,9.99488869372741,0.03162277660168379,0.6926885128058554,0.26171020159154756
7466169,1890,1,213111.0,246397,1.28,0.17,9.93,-0.03,-0.01,-0.0,31.99,5.547682,3.0184451617461048,128.42633212644213,10.013600750978641,0.03162277660168379,0.14742538311384337,0.35234880813046526
7506172,1893,1,213280.0,246464,1.27,0.15,9.92,-0.03,-0.01,-0.0,31.99,5.587685,4.6980579859156455,198.78701156628068,10.002089781640635,0.03162277660168379,0.22362217828283681,0.547963550353152
7546172,1914,1,213217.0,246468,1.28,0.15,9.93,-0.03,-0.01,-0.0,31.99,5.627685,22.64592250353924,281.8057984281986,10.01328118051221,0.03162277660168379,1.0378394411489886,0.7787699996501618
7586172,1898,1,213210.0,246402,1.28,0.17,9.93,-0.03,-0.01,-0.0,31.99,5.667685,10.760953354136108,339.2141107024505,10.013600750978641,0.03162277660168379,0.49866961174819474,0.9383749423023906
7626169,1891,1,213182.0,246446,1.32,0.16,9.88,-0.03,-0.01,-0.0,31.99,5.707682,-6.165118629936127,328.6155152062489,9.96907217347733,0.03162277660168379,-0.26919332751203007,0.9089090311938329
7666171,1891,1,213171.0,246616,1.29,0.18,9.93,-0.03,-0.01,-0.0,31.99,5.747684,5.867131310797329,219.24349066847154,10.015058661835187,0.03162277660168379,0.2766579966522208,0.6048360666252608
7706170,1904,1,213100.0,245868,1.27,0.16,9.93,-0.03,-0.01,-0.0,31.99,5.787683,0.3960255586102788,15.7170905031052,10.012162603553739,0.03162277660168379,0.02845750761783932,0.03899780837050378
7746188,1882,1,212526.0,243901,1.29,0.17,9.93,-0.03,-0.01,-0.0,31.99,5.827701,-1.6014433906895251,-230.01872536271398,10.01488392344115,0.03162277660168379,-0.06215905007692293,-0.6441898563616909
7786172,1936,1,212267.25,243434,1.27,0.17,9.94,-0.03,-0.01,-0.0,31.99,5.867685,27.710395154958626,-439.8108198485792,10.022245257426102,0.03162277660168379,1.2675927388769772,-1.227447818193906
7826172,1911,1,212267.25,243455,1.28,0.17,9.93,-0.03,-0.01,-0.0,31.99,5.907685,25.757236171895247,-554.5106021415972,10.013600750978641,0.03162277660168379,1.1789863333867452,-1.5463328620120462
7866169,1905,1,212267.25,243509,1.27,0.15,9.92,-0.03,-0.01,-0.0,31.99,5.947682,-4.180751383061103,-566.2640182430636,10.002089781640635,0.03162277660168379,-0.17917113759159084,-1.5790093722337841
7906172,1885,1,212267.25,243816,1.27,0.18,9.93,-0.03,-0.01,-0.0,31.99,5.987685,-5.891525302556694,-511.74993201933745,10.0125021847688,0.03162277660168379,-0.2567815773598833,-1.4274508738074365
7946213,1904,1,212267.25,243999,1.3,0.17,9.9,-0.03,-0.01,-0.0,31.99,6.027726,-2.849065144002601,-438.2926649558598,9.986435800624767,0.03162277660168379,-0.11875827212238466,-1.223227087519363
7986172,1878,1,212267.25,243884,1.26,0.15,9.91,-0.03,-0.01,-0.0,31.99,6.067685,-20.580574035309958,-376.08535264791163,9.99090586483528,0.03162277660168379,-0.9231604126550733,-1.050280102664133
8026174,1875,1,212267.25,243649,1.29,0.17,9.9,-0.03,-0.01,-0.0,31.99,6.107687,-29.300594969147184,-334.96250082646213,9.985138957470747,0.03162277660168379,-1.318750181561161,-0.9359515299079139
8066172,1869,1,212267.25,243730,1.27,0.17,9.92,-0.03,-0.01,-0.0,31.99,6.147685,-35.530069360000084,-315.55234800169444,10.002409709664967,0.03162277660168379,-1.6013545873741497,-0.8819879799315892
8106172,1862,1,212267.25,244073,1.3,0.16,9.91,-0.03,-0.01,-0.0,31.99,6.187685,-43.258591938648266,-313.7814729769868,9.996184272010996,0.03162277660168379,-1.9519643489871357,-0.8770646439970211
8146859,1862,1,212267.25,244085,1.27,0.16,9.92,-0.03,-0.01,-0.0,31.81,6.228372,-43.80127747856418,-312.6305515228355,10.002244748055308,0.03162277660168379,-1.9765836531095562,-0.8738648851918939
8187169,1862,1,212267.25,244359,1.27,0.18,9.95,-0.03,-0.01,-0.0,31.81,6.268682,-48.58003665440373,-276.97873184619533,10.032337713613911,0.03162277660168379,-2.1933753617960092,-0.774746719032359
8227172,1862,1,212267.25,244726,1.27,0.18,9.93,-0.03,-0.01,-0.0,31.81,6.308685,-42.01994083552537,-170.71604356589503,10.0125021847688,0.03162277660168379,-1.8957720866797978,-0.4793182419151921
8267169,1871,1,212286.0,245179,1.28,0.17,9.89,-0.03,-0.01,-0.0,31.81,6.348682,-44.89433378561041,7.714210357717367,9.973936033482468,0.03162277660168379,-2.026170906991925,0.016748430605218637
8307172,1871,1,212577.0,245771,1.29,0.17,9.91,-0.03,-0.01,-0.0,31.81,6.388685,-33.81651985010881,203.39846613008723,9.995053776743775,0.03162277660168379,-1.523618231031627,0.5607841840217334
8347169,1917,1,212788.0,246244,1.28,0.16,9.9,-0.03,-0.01,-0.0,31.81,6.428682,1.1459337981429696,328.0785988810906,9.983686693802046,0.03162277660168379,0.062477612549739464,0.9074163118315818
8387172,1891,1,212853.0,245524,1.27,0.17,9.91,-0.03,-0.01,-0.0,31.81,6.468685,-19.6501982337421,320.7004528599664,9.99249218163317,0.03162277660168379,-0.8809532721985782,0.8869038019539929
8427169,1884,1,212294.0,243575,1.29,0.17,9.93,-0.03,-0.01,-0.0,31.81,6.508682,-27.8620507638313,196.39648615305177,10.01488392344115,0.03162277660168379,-1.253489630690937,0.5413174801871384
8467172,1910,1,212267.25,242933,1.26,0.14,9.93,-0.03,-0.01,-0.0,31.81,6.548685,-5.933668777231976,39.4631423545695,10.010599382654368,0.03162277660168379,-0.2586934451792599,0.10501590041724825
8507169,1898,1,212267.25,243376,1.29,0.16,9.93,-0.03,-0.01,-0.0,31.81,6.588682,-13.304902006415736,-53.79270622275325,10.014719167305692,0.03162277660168379,-0.5930945288246529,-0.1542513341439074
8547172,1917,1,212267.25,243875,1.3,0.18,9.91,-0.03,-0.01,-0.0,31.81,6.628685,2.9585696863969666,-34.10530912273984,9.996524396008844,0.03162277660168379,0.1447090908438792,-0.09951699758810861
8587169,1930,1,212267.25,244322,1.3,0.14,9.92,-0.03,-0.01,-0.0,31.81,6.668682,13.138651934763317,81.61647757212181,10.005798318974854,0.03162277660168379,0.6065355491324464,0.22220939354516114
8627172,1954,1,212479.0,244871,1.29,0.16,9.93,-0.03,-0.01,-0.0,31.81,6.708685,46.961708555351606,234.7767153432778,10.014719167305692,0.03162277660168379,2.140941860052641,0.6480210921940854
8665169,2046,1,212687.0,245181,1.26,0.16,9.94,-0.03,-0.01,-0.0,31.81,6.746682,123.68535541601513,367.8291234446397,10.020818329857098,0.03162277660168379,5.6215630605669205,1.0179295797195629
8705171,2019,1,212593.0,245162,1.28,0.17,9.93,-0.03,-0.01,-0.0,31.81,6.786684,116.56190524832462,456.21455342466595,10.013600750978641,0.03162277660168379,5.298402826545478,1.2636562162363043
8745169,2001,1,212772.0,245495,1.29,0.16,9.92,-0.03,-0.01,-0.0,31.81,6.826682,79.48955948456761,514.329385550559,10.004803846153107,0.03162277660168379,3.61659027073115,1.425225405108926
8785172,1980,1,212861.0,245868,1.29,0.14,9.91,-0.03,-0.01,-0.0,31.81,6.866685,76.98995639205535,578.6212689162827,9.994588535802762,0.03162277660168379,3.503194051017175,1.6039678546094385
8825172,1955,1,213008.0,246316,1.29,0.15,9.92,-0.03,-0.01,-0.0,31.81,6.906685,39.802309045514875,681.3105652572041,10.00464891937743,0.03162277660168379,1.816150759309678,1.889461689982847
8865172,1910,1,213218.0,246706,1.29,0.15,9.93,-0.03,-0.01,-0.0,31.81,6.946685,4.410185227866874,826.492294506851,10.014564393921486,0.03162277660168379,0.21056263190159216,2.2930917681559344
8905172,1910,1,213270.0,246880,1.29,0.17,9.91,-0.03,-0.01,-0.0,31.81,6.986685,2.464894625083857,975.6904620083252,9.995053776743775,0.03162277660168379,0.12231318091415228,2.7078882327189704
8945172,1887,1,213409.0,247039,1.29,0.15,9.9,-0.03,-0.01,-0.0,31.81,7.026685,-19.332363202629388,1051.549209037475,9.984818476066554,0.03162277660168379,-0.8665344666174765,2.918788544705458
8985169,1862,1,213443.0,247245,1.3,0.17,9.94,-0.03,-0.01,-0.0,31.81,7.066682,-39.711879401106025,969.0112755538809,10.026090963082272,0.03162277660168379,-1.7910652865022876,2.6893189501744414
9025195,1872,1,213377.0,246816,1.3,0.15,9.93,-0.03,-0.01,-0.0,31.81,7.106708,-31.346849551035074,688.0971276005079,10.015857427100288,0.03162277660168379,-1.411579933153953,1.9083294958928037
9065169,1875,1,213000.0,244740,1.31,0.17,9.91,-0.03,-0.01,-0.0,31.81,7.146682,-23.42389090371811,255.74077035820483,9.997654724984255,0.03162277660168379,-1.0521494450707791,0.7063047564556508
9105172,1895,1,212267.25,243134,1.31,0.13,9.959999999999999,-0.03,-0.01,-0.0,31.81,7.186685,-2.80642374582751,-203.1200343745084,10.046621322613886,0.03162277660168379,-0.11682381565973328,-0.569406887441037
9145169,1897,1,212267.25,242990,1.29,0.18,9.93,-0.03,-0.01,-0.0,31.81,7.226682,1.6584358233603893,-550.9901432188507,10.015058661835187,0.03162277660168379,0.08572762069283293,-1.5365453831223994
9185859,1862,1,212267.25,243447,1.29,0.15,9.89,-0.03,-0.01,-0.0,32.39,7.267372,-30.978172038203894,-715.8345648173741,9.974903508305232,0.03162277660168379,-1.3948546232942232,-1.9948411144109923
9226169,1862,1,212269.0,243853,1.32,0.15,9.94,-0.03,-0.01,-0.0,32.39,7.307682,-28.058729620750533,-724.2181199025606,10.028384715396593,0.03162277660168379,-1.2624121027982553,-2.018148833721757
9266172,1879,1,212558.0,244596,1.3,0.15,9.91,-0.03,-0.01,-0.0,32.39,7.347685,-10.99443098623138,-669.8771443351553,9.996029211641991,0.03162277660168379,-0.4882784161256276,-1.867071612575302
9306169,1862,1,212631.0,244894,1.3,0.16,9.93,-0.03,-0.01,-0.0,32.39,7.387682,-21.703799754678776,-647.7162189693529,10.016012180503775,0.03162277660168379,-0.974116322752752,-1.8054604437042814
9346172,1866,1,212656.0,244849,1.3,0.14,9.94,-0.03,-0.01,-0.0,32.39,7.427685,-20.67594119110318,-700.9882291511027,10.025627162427295,0.03162277660168379,-0.9274868095075257,-1.9535657579557955
9386175,1869,1,212740.0,245128,1.3,0.15,9.94,-0.03,-0.01,-0.0,32.39,7.467688,-10.019389868514955,-809.5345621999487,10.025771790740102,0.03162277660168379,-0.44404500277054737,-2.2553431587371975
9426172,1872,1,212822.0,245412,1.29,0.17,9.91,-0.03,-0.01,-0.0,32.39,7.507685,-9.478133739540628,-914.8926226689725,9.995053776743775,0.03162277660168379,-0.41949054486218357,-2.548256615568615
9466172,1862,1,212982.0,245968,1.3,0.15,9.89,-0.03,-0.01,-0.0,32.39,7.547685,-14.323957285102988,-960.3759807101688,9.976201682003026,0.03162277660168379,-0.6393246749742015,-2.674708142607354
9506172,1862,1,213189.0,246448,1.3,0.15,9.89,-0.03,-0.01,-0.0,32.39,7.587685,-13.874773583656195,-926.1353949380848,9.976201682003026,0.03162277660168379,-0.6189471462962371,-2.579513448458798
9546169,1862,1,213227.0,246853,1.3,0.15,9.93,-0.03,-0.01,-0.0,32.39,7.627682,-11.424412687949864,-845.8039028678025,10.015857427100288,0.03162277660168379,-0.5077848328311906,-2.356178139038879
9586177,1862,1,213481.0,247414,1.31,0.14,9.93,-0.03,-0.01,-0.0,32.39,7.66769,-10.457417490839662,-791.962561385725,10.017015523597834,0.03162277660168379,-0.46391642821833734,-2.2064899862411833
9626169,1862,1,213802.0,248195,1.31,0.16,9.92,-0.03,-0.01,-0.0,32.39,7.707682,-6.620321401504505,-824.4820046912074,10.007402260327103,0.03162277660168379,-0.28984391546089455,-2.2968996094863137
9666172,1862,1,214139.0,248573,1.3,0.16,9.9,-0.03,-0.01,-0.0,32.39,7.747685,-9.786790912014132,-925.3140243708423,9.986270575144657,0.03162277660168379,-0.4334929905508397,-2.5772298975741332
9706169,1862,1,213999.0,247387,1.29,0.14,9.93,-0.03,-0.01,-0.0,32.39,7.787682,-1.0546952137508019,-976.8595773967153,10.014419603751383,0.03162277660168379,-0.037355441621611876,-2.720535365175586
9746172,1886,1,213898.0,247771,1.32,0.16,9.88,-0.03,-0.01,-0.0,32.39,7.827685,14.4022974422496,-827.197673447269,9.96907217347733,0.03162277660168379,0.663861699846828,-2.304449633845209
9786186,1862,1,214817.0,249369,1.3,0.16,9.92,-0.03,-0.01,-0.0,32.39,7.867699,2.4179838054178484,-409.51306996773116,10.006098140634041,0.03162277660168379,0.12018503919847577,-1.1432148832641473
9826172,1862,1,215890.0,250821,1.29,0.14,9.91,-0.03,-0.01,-0.0,32.39,7.907685,-7.554675584180261,184.21327220331693,9.994588535802762,0.03162277660168379,-0.33223153792254023,0.5074460583192048
9866172,1862,1,216491.0,251675,1.3,0.15,9.94,-0.03,-0.01,-0.0,32.39,7.947685,2.609576472258924,748.1022169191724,10.025771790740102,0.03162277660168379,0.12887677278201087,2.075153923578387
9906172,1873,1,216906.0,252558,1.33,0.13,9.91,-0.03,-0.01,-0.0,32.39,7.987685,7.0332837266664745,1093.6914158632264,9.999694995348609,0.03162277660168379,0.32956130596801037,3.0359510989977765
9946169,1862,1,217129.0,252966,1.32,0.15,9.93,-0.03,-0.01,-0.0,32.39,8.027682,1.0901739704990823,1161.619302586531,10.018472937528953,0.03162277660168379,0.05994802947886694,3.2248022607105145
9986172,1862,1,217114.0,252999,1.31,0.16,9.92,-0.03,-0.01,-0.0,32.39,8.067685,-1.1037769156327197,1034.5108455478126,10.007402260327103,0.03162277660168379,-0.03958206690752634,2.871418975388314
10026174,1862,1,217214.0,253054,1.33,0.14,9.89,-0.03,-0.01,-0.0,32.39,8.107687,0.2544984355694385,859.0835553716545,9.980010020035051,0.03162277660168379,0.022037031987968022,2.3837010565189334
10066172,1862,1,217170.0,253219,1.33,0.15,9.88,-0.03,-0.01,-0.0,32.39,8.147685,-0.8325646854596666,747.9625301500398,9.970245734183287,0.03162277660168379,-0.02727833687376704,2.0747655704306727
10106172,1862,1,217391.0,253760,1.31,0.14,9.93,-0.03,-0.01,-0.0,32.39,8.187685,1.1731989186110596,728.7209897918124,10.017015523597834,0.03162277660168379,0.06371451356029956,2.0212707919960726
10146172,1862,1,217517.0,254053,1.32,0.14,9.91,-0.03,-0.01,-0.0,32.39,8.227685,-3.1395834363138353,759.2574159858813,9.99850488823204,0.03162277660168379,-0.13193783499160125,2.1061672879638578
10186858,1862,1,217689.25,254301,1.32,0.13,9.95,-0.03,-0.01,-0.0,32.61,8.268371,3.052896790200668,779.5695357853392,10.038017732600395,0.03162277660168379,0.14898830501990143,2.1626384606443985
10225171,1908,1,217689.25,254789,1.3,0.14,9.91,-0.03,-0.01,-0.0,32.61,8.306684,39.34811774035935,753.6654084929866,9.99588415299017,0.03162277660168379,1.795546057232826,2.090620549175395
10265169,1898,1,217689.25,255185,1.29,0.11,9.93,-0.03,-0.01,-0.0,32.61,8.346682,40.54129509602322,676.5932364289625,10.014045136706745,0.03162277660168379,1.849675371597137,1.8763467077219786
10305172,1878,1,217689.25,255667,1.31,0.14,9.91,-0.03,-0.01,-0.0,32.61,8.386685,5.9404640214142335,557.3694905038269,9.99718960508402,0.03162277660168379,0.2799847856893467,1.5448842700132899
10345172,1875,1,217689.25,255323,1.31,0.15,9.93,-0.03,-0.01,-0.0,32.61,8.426685,17.477633722656215,406.1381097893743,10.017160276245958,0.03162277660168379,0.8033764530458448,1.1244351244115411
10385171,1903,1,217689.25,253676,1.33,0.14,9.93,-0.03,-0.01,-0.0,32.61,8.466684,29.026005672446892,238.979252116505,10.019650692514185,0.03162277660168379,1.3272763181404255,0.6597048643537774
10425172,1862,1,217406.0,252805,1.3,0.13,9.92,-0.03,-0.01,-0.0,32.61,8.506685,1.4987156700177708,85.89760441445179,10.00566339629712,0.03162277660168379,0.07848180568506466,0.23411165956010294
10465172,1873,1,217312.0,252849,1.3,0.14,9.92,-0.03,-0.01,-0.0,32.61,8.546685,-0.3636067042943597,-19.244228210794475,10.005798318974854,0.03162277660168379,-0.006003734346613043,-0.058200646823952956
10505172,1872,1,217372.0,253007,1.31,0.15,9.93,-0.03,-0.01,-0.0,32.61,8.586685,5.750921201107474,-64.5215897704095,10.017160276245958,0.03162277660168379,0.27138604480880574,-0.184079468354955
10545171,1866,1,217447.0,253215,1.33,0.14,9.89,-0.03,-0.01,-0.0,32.61,8.626684,-5.726739129870747,-74.53956817829749,9.980010020035051,0.03162277660168379,-0.24930593888764088,-0.21193116449337912
10585172,1862,1,217456.0,253502,1.32,0.14,9.93,-0.03,-0.01,-0.0,32.61,8.666685,-10.088516067934114,-93.65814960313774,10.018328203847187,0.03162277660168379,-0.4471809605235236,-0.2650840960292568
10626172,1862,1,217383.0,253545,1.33,0.14,9.92,-0.03,-0.01,-0.0,32.61,8.707685,-9.830181622720595,-149.87630501805984,10.009740256370293,0.03162277660168379,-0.435461440093711,-0.4213801987286051
10666172,1870,1,217236.0,253365,1.3,0.14,9.92,-0.03,-0.01,-0.0,32.61,8.747685,-6.066306667013198,-232.35669763063297,10.005798318974854,0.03162277660168379,-0.2647106546062625,-0.6506898197809443
10706172,1862,1,217191.0,253317,1.33,0.14,9.9,-0.03,-0.01,-0.0,32.61,8.787685,-12.005548091955088,-302.54202095311314,9.989919919598956,0.03162277660168379,-0.5341484415791353,-0.8458170419573876
10746169,1862,1,217083.0,253561,1.31,0.15,9.92,-0.03,-0.01,-0.0,32.61,8.827682,-17.27322086489708,-326.48416578909615,10.007247373778666,0.03162277660168379,-0.7731200530846625,-0.9123803060934822
10786172,1862,1,217173.0,253858,1.3,0.15,9.93,-0.03,-0.01,-0.0,32.61,8.867685,-14.32348447833263,-297.26165686352425,10.015857427100288,0.03162277660168379,-0.6393032257686959,-0.8311367252172679
10826169,1862,1,217288.0,254059,1.31,0.15,9.91,-0.03,-0.01,-0.0,32.61,8.907682,-21.21598666216708,-228.88042492725043,9.997334644794082,0.03162277660168379,-0.9519863450840919,-0.6410251861506029
10866172,1868,1,217279.0,254177,1.32,0.13,9.91,-0.03,-0.01,-0.0,32.61,8.947685,-10.546327424658381,-134.017489075023,9.998369867133341,0.03162277660168379,-0.46794988873863513,-0.3772899736575593
10906172,1883,1,217392.0,254184,1.32,0.14,9.91,-0.03,-0.01,-0.0,32.61,8.987685,-3.286745451431058,-15.79761727515983,9.99850488823204,0.03162277660168379,-0.13861394139016223,-0.048618477989262526
10946172,1862,1,217263.0,254298,1.31,0.16,9.92,-0.03,-0.01,-0.0,32.61,9.027685,-21.530047509986375,112.40903018061026,10.007402260327103,0.03162277660168379,-0.9662339322348504,0.3078179648216555
10986172,1862,1,217431.0,254450,1.32,0.14,9.92,-0.03,-0.01,-0.0,32.61,9.067685,-23.363624719872806,201.65818955106397,10.008416458161602,0.03162277660168379,-1.0494154280401886,0.5559459170079406
11026174,1884,1,217453.0,254517,1.3,0.14,9.92,-0.03,-0.01,-0.0,32.61,9.107687,-9.069727535753637,175.61372744590054,10.005798318974854,0.03162277660168379,-0.40096291551338414,0.48353785071878186
11066169,1895,1,217335.0,253713,1.32,0.14,9.9,-0.03,-0.01,-0.0,32.61,9.147682,14.147342137849483,-17.4829075997335,9.988593494581707,0.03162277660168379,0.6522954764725636,-0.05330387379607458
11104172,1950,1,216760.0,251882,1.32,0.13,9.92,-0.03,-0.01,-0.0,32.61,9.185685,45.93473085592769,-348.81888940586475,10.008281570779271,0.03162277660168379,2.094352307817697,-0.9744746638753002
11144172,1949,1,216284.0,250747,1.33,0.16,9.92,-0.03,-0.01,-0.0,32.61,9.225685,71.23584324529311,-704.834745674866,10.0100399599602,0.03162277660168379,3.2421547361739838,-1.9642597328326956
11184172,1967,1,216015.0,250414,1.3,0.14,9.9,-0.03,-0.01,-0.0,32.61,9.265685,56.38092433543609,-948.6874456692012,9.98597015817692,0.03162277660168379,2.5682510857978724,-2.642212012848477
11224873,1879,1,216040.0,250461,1.32,0.14,9.91,-0.03,-0.01,-0.0,32.41,9.306386,-2.1224003902950277,-1001.3091997411589,9.99850488823204,0.03162277660168379,-0.08579262396941842,-2.7885095037203933
11265172,1873,1,216134.0,250698,1.31,0.14,9.88,-0.03,-0.01,-0.0,32.41,9.346685,-36.76882776023535,-879.3943729059246,9.967452031487285,0.03162277660168379,-1.6575517172890548,-2.4495654000766924
11305172,1862,1,216217.0,251219,1.31,0.14,9.93,-0.03,-0.01,-0.0,32.41,9.386685,-28.68027271575291,-667.5565983717389,10.017015523597834,0.03162277660168379,-1.2906088343408444,-1.8606200972678393
11345172,1888,1,216474.0,251505,1.31,0.13,9.92,-0.03,-0.01,-0.0,32.41,9.426685,-16.86646204519628,-455.1145603225661,10.006967572646571,0.03162277660168379,-0.7546671584520868,-1.2699948383718669
11385172,1873,1,216539.0,251643,1.29,0.12,9.93,-0.03,-0.01,-0.0,32.41,9.466685,-27.45363809835663,-287.4862260594923,10.014159974755746,0.03162277660168379,-1.2349617082032158,-0.803959352968021
11425195,1862,1,216607.0,252017,1.31,0.16,9.88,-0.03,-0.01,-0.0,32.41,9.506708,-40.891552283893205,-160.1498006166496,9.967753006570739,0.03162277660168379,-1.8445819611327008,-0.4499422764294377
11465172,1862,1,216679.0,252506,1.32,0.13,9.92,-0.03,-0.01,-0.0,32.41,9.546685,-41.99537192892355,-45.430825221635764,10.008281570779271,0.03162277660168379,-1.8946575012724194,-0.13100387249980858
11505172,1875,1,216846.0,252905,1.3,0.15,9.93,-0.03,-0.01,-0.0,32.41,9.586685,-32.796494347604565,79.4113093421073,10.015857427100288,0.03162277660168379,-1.4773440700088958,0.216078648101738
11545169,1897,1,217072.0,253277,1.31,0.17,9.92,-0.03,-0.01,-0.0,32.41,9.626682,-3.877515239111277,224.78727324670686,10.00756713692194,0.03162277660168379,-0.16541462060393058,0.6202487318896344
11585172,1904,1,217135.0,253670,1.3,0.15,9.9,-0.03,-0.01,-0.0,32.41,9.666685,-11.956121239366931,395.1513742958046,9.98611536083977,0.03162277660168379,-0.5319061582931822,1.0938901176186333
11625169,1885,1,217305.0,253984,1.31,0.14,9.9,-0.03,-0.01,-0.0,32.41,9.706682,-12.650968354979167,585.7663777596231,9.987276906144137,0.03162277660168379,-0.5634283773309234,1.6238324812115472
11664172,1973,1,217284.0,254362,1.31,0.14,9.9,-0.03,-0.01,-0.0,32.41,9.745685,53.196749243227806,763.2146740899534,9.987276906144137,0.03162277660168379,2.4237987847723863,2.1171691434049866
11704169,1963,1,217507.0,254715,1.29,0.13,9.9,-0.03,-0.01,-0.0,32.41,9.785682,62.85285661730246,855.3990538816572,9.984538046399543,0.03162277660168379,2.861854761200145,2.3734575111904497
11744172,1947,1,217564.0,255079,1.29,0.14,9.92,-0.03,-0.01,-0.0,32.41,9.825685,29.860080113091822,782.4792025511863,10.004503985705638,0.03162277660168379,1.3651146808838974,2.1707278327039985
11784172,1937,1,217422.0,253741,1.3,0.14,9.9,-0.03,-0.01,-0.0,32.41,9.865685,30.733500344656196,521.0671905383996,9.98597015817692,0.03162277660168379,1.4047379925919816,1.4439576572181474
11824172,1936,1,216720.0,252390,1.31,0.16,9.92,-0.03,-0.01,-0.0,32.41,9.905685,22.863997307349017,147.1844735119431,10.007402260327103,0.03162277660168379,1.0477325551561574,0.40449965461055015
11864172,1920,1,216366.0,251962,1.29,0.14,9.93,-0.03,-0.01,-0.0,32.41,9.945685,10.077788965457028,-192.5525454636452,10.014419603751383,0.03162277660168379,0.4676773876821108,-0.5400274579685413
11904172,1916,1,216266.0,252176,1.29,0.15,9.9,-0.03,-0.01,-0.0,32.41,9.985685,3.4368645696720184,-369.5868802203227,9.984818476066554,0.03162277660168379,0.16640726838030412,-1.0322132360721046
11944169,1905,1,216428.0,252356,1.32,0.14,9.94,-0.03,-0.01,-0.0,32.41,10.025682,-4.036880494563303,-351.6627520591811,10.028240124767654,0.03162277660168379,-0.17264433542391378,-0.9823810892292633
11984172,1913,1,216540.0,252819,1.3,0.15,9.89,-0.03,-0.01,-0.0,32.41,10.065685,-1.5998741626400361,-209.06200720032632,9.976201682003026,0.03162277660168379,-0.06208786096325354,-0.5859265898070499
12024199,1920,1,216708.0,253205,1.32,0.12,9.89,-0.03,-0.01,-0.0,32.41,10.105712,13.261709944377943,-52.13065835487504,9.978421718889216,0.03162277660168379,0.6121181606829065,-0.14963055634833827
12064172,1929,1,216730.0,253191,1.3,0.15,9.93,-0.03,-0.01,-0.0,32.41,10.145685,13.89607866807917,42.840737847354646,10.015857427100288,0.03162277660168379,0.6408967357246741,0.11440619449788755
12104169,1904,1,216679.0,253278,1.3,0.13,9.91,-0.03,-0.01,-0.0,32.41,10.185682,-2.9875106887371943,66.01837723652639,9.995749096490968,0.03162277660168379,-0.12503894982524597,0.1788440025255928
12144172,1918,1,216794.0,253493,1.3,0.15,9.93,-0.03,-0.01,-0.0,32.41,10.225685,6.3931550391934335,56.7924088534874,10.015857427100288,0.03162277660168379,0.30052142619375566,0.15319422993426984
12184172,1927,1,216839.0,253713,1.31,0.13,9.93,-0.03,-0.01,-0.0,32.41,10.265685,16.729727416517047,66.57286095269838,10.016880752010579,0.03162277660168379,0.7694471672042333,0.18038556224430477
12224858,1904,1,216933.0,253964,1.31,0.15,9.93,-0.03,-0.01,-0.0,32.49,10.306371,-1.7921336637061505,130.8841101178443,10.017160276245958,0.03162277660168379,-0.07080984594170883,0.35918185198473634
12265172,1893,1,217025.0,254179,1.27,0.14,9.92,-0.03,-0.01,-0.0,32.49,10.346685,-20.664599972157955,255.65211273103225,10.001944810885531,0.03162277660168379,-0.9269723072814764,0.706058273064309
12305172,1872,1,217072.0,254460,1.29,0.15,9.92,-0.03,-0.01,-0.0,32.49,10.386685,-28.936055679233803,409.1272924979467,10.00464891937743,0.03162277660168379,-1.3022126050406235,1.1327455644136715
12345172,1890,1,217188.0,254640,1.3,0.14,9.9,-0.03,-0.01,-0.0,32.49,10.426685,-24.851723614929096,521.8435978949614,9.98597015817692,0.03162277660168379,-1.1169240616170206,1.446116202674541
12385172,1872,1,217218.0,254849,1.29,0.14,9.95,-0.03,-0.01,-0.0,32.49,10.466685,-26.039060144565607,510.3830104714913,10.034251342277608,0.03162277660168379,-1.170788402876804,1.4142538063416639
12425172,1884,1,217286.0,254410,1.29,0.14,9.92,-0.03,-0.01,-0.0,32.49,10.506685,-30.37065977668201,327.96254569966015,10.004503985705638,0.03162277660168379,-1.3672944101976587,0.9070936641063129
12465172,1878,1,216796.0,252534,1.3,0.15,9.94,-0.03,-0.01,-0.0,32.49,10.546685,-17.850055895462305,10.697776528589708,10.025771790740102,0.03162277660168379,-0.7992885724230465,0.025043255670382347
12505172,1902,1,216212.0,251465,1.3,0.14,9.89,-0.03,-0.01,-0.0,32.49,10.586685,-11.603325375337556,-326.0297184069674,9.976056335045428,0.03162277660168379,-0.5159013303941063,-0.9111168645204811
12545172,1872,1,216096.0,251339,1.3,0.14,9.92,-0.03,-0.01,-0.0,32.49,10.626685,-21.813105802975766,-551.6303126715763,10.005798318974854,0.03162277660168379,-0.9790750670853549,-1.5383251638674225
12585169,1882,1,216191.0,251459,1.31,0.13,9.92,-0.03,-0.01,-0.0,32.49,10.666682,-30.20323942192022,-599.1749387627256,10.006967572646571,0.03162277660168379,-1.3596992702372266,-1.6705073691976944
12625171,1881,1,216230.0,251804,1.29,0.14,9.9,-0.03,-0.01,-0.0,32.49,10.706684,-12.206156538358046,-497.2949092330965,9.984673254543686,0.03162277660168379,-0.5432491822258936,-1.3872634341939332
12664173,1923,1,216316.0,252250,1.3,0.14,9.93,-0.03,-0.01,-0.0,32.49,10.745686,14.202968202719653,-335.5030057447714,10.015712655622664,0.03162277660168379,0.6548189913028728,-0.9374542261738811
12704172,1904,1,216506.0,252365,1.3,0.14,9.9,-0.03,-0.01,-0.0,32.49,10.785685,9.070468350548209,-198.09438091250115,9.98597015817692,0.03162277660168379,0.4219795926550563,-0.5554347098796806
12744169,1910,1,216505.0,252390,1.31,0.13,9.92,-0.03,-0.01,-0.0,32.49,10.825682,6.22217993121977,-118.33812713636084,10.006967572646571,0.03162277660168379,0.29276502240009733,-0.33369866146066496
12784172,1915,1,216462.0,252492,1.3,0.14,9.9,-0.03,-0.01,-0.0,32.49,10.865685,17.64293845210856,-78.12879492936733,9.98597015817692,0.03162277660168379,0.8108756162037434,-0.2219098297262757
12824169,1920,1,216518.0,252749,1.29,0.16,9.9,-0.03,-0.01,-0.0,32.49,10.905682,20.265332255801226,-39.22451040919245,9.984973710531241,0.03162277660168379,0.9298423212901997,-0.11374925412695722
12864196,1923,1,216617.0,253102,1.29,0.16,9.93,-0.03,-0.01,-0.0,32.49,10.945709,24.950520965663777,27.149114531030772,10.014719167305692,0.03162277660168379,1.14238914119793,0.07078079357061591
12904172,1923,1,216714.0,253347,1.3,0.13,9.94,-0.03,-0.01,-0.0,32.49,10.985685,24.818406289389582,132.84513331761858,10.025492506605348,0.03162277660168379,1.1363956677128366,0.3646338324199815
12944172,1925,1,216868.0,253546,1.3,0.15,9.93,-0.03,-0.01,-0.0,32.49,11.025685,27.822466802228508,278.73895273196456,10.015857427100288,0.03162277660168379,1.2726769465160186,0.7702436432380049
12984169,1930,1,216868.0,253775,1.3,0.16,9.93,-0.03,-0.01,-0.0,32.49,11.065682,32.45292682468139,451.31878399567006,10.016012180503775,0.03162277660168379,1.4827409617413756,1.2500451385369535
13024205,1909,1,216931.0,254000,1.29,0.14,9.91,-0.03,-0.01,-0.0,32.49,11.105718,11.779438241422596,605.4212057642167,9.994588535802762,0.03162277660168379,0.5448738816981189,1.6784762701027172
13064189,1888,1,216986.0,254197,1.3,0.15,9.91,-0.03,-0.01,-0.0,32.49,11.145702,-7.617614591992597,659.2941789549553,9.996029211641991,0.03162277660168379,-0.3350868094573878,1.8282523644692705
13104172,1909,1,217043.0,254178,1.29,0.15,9.91,-0.03,-0.01,-0.0,32.49,11.185685,9.544627006361956,530.897772934505,9.994733613258534,0.03162277660168379,0.44349012737755045,1.4712883603412932
13144172,1925,1,216738.0,252465,1.3,0.15,9.9,-0.03,-0.01,-0.0,32.49,11.225685,32.259693754640516,204.10270274450843,9.98611536083977,0.03162277660168379,1.4739748101343466,0.5627420824515171
13184172,1908,1,215982.0,250810,1.31,0.14,9.93,-0.03,-0.01,-0.0,32.49,11.265685,5.863369518784231,-231.51244647208017,10.017015523597834,0.03162277660168379,0.27648734036086264,-0.6483426569327981
13224858,1862,1,215496.0,250281,1.3,0.14,9.93,-0.03,-0.01,-0.0,32.53,11.306371,-29.746755413508005,-616.1052723809993,10.015712655622664,0.03162277660168379,-1.3389905580945312,-1.717576596965946
13265172,1872,1,215422.0,250341,1.3,0.16,9.9,-0.03,-0.01,-0.0,32.53,11.346685,-30.460181452016208,-814.3050681279958,9.986270575144657,0.03162277660168379,-1.3713556227940782,-2.2686059824452127
13305169,1863,1,215479.0,250400,1.3,0.15,9.91,-0.03,-0.01,-0.0,32.53,11.386682,-31.532640559330634,-795.6265086573579,9.996029211641991,0.03162277660168379,-1.4200084704928109,-2.216676387321503
13345172,1877,1,215529.0,250787,1.3,0.13,9.9,-0.03,-0.01,-0.0,32.53,11.426685,-23.47623294126461,-638.0199348737839,9.985834967592846,0.03162277660168379,-1.0545239777346567,-1.7785031128630626
13385169,1884,1,215744.0,251121,1.28,0.15,9.93,-0.03,-0.01,-0.0,32.53,11.466682,-15.097069232501141,-458.8847980359483,10.01328118051221,0.03162277660168379,-0.674397432130438,-1.2804767450887018
13425172,1877,1,215767.0,251251,1.29,0.13,9.92,-0.03,-0.01,-0.0,32.53,11.506685,-22.613978606699032,-333.90724556024736,10.004369045572039,0.03162277660168379,-1.015407214651501,-0.9330177394936778
13465172,1881,1,215757.0,251292,1.31,0.14,9.91,-0.03,-0.01,-0.0,32.53,11.546685,-21.069010068719436,-263.64783032489055,9.99718960508402,0.03162277660168379,-0.9453186504675639,-0.7376845291068657
13505172,1871,1,215773.0,251383,1.31,0.13,9.91,-0.03,-0.01,-0.0,32.53,11.586685,-30.92404835863105,-201.13621475787446,9.997054566220992,0.03162277660168379,-1.3923992652099912,-0.5638915290617028
13545172,1894,1,215894.0,251671,1.29,0.12,9.91,-0.03,-0.01,-0.0,32.53,11.626685,-9.5921997537223,-104.8297019627422,9.994328391642933,0.03162277660168379,-0.4246652283328469,-0.2961429253704348
13583172,1968,1,216014.0,252020,1.3,0.13,9.91,-0.03,-0.01,-0.0,32.53,11.664685,62.61902100975264,31.219259349353006,9.995749096490968,0.03162277660168379,2.851246647451966,0.08209649341580966
13623172,1993,1,216150.0,252350,1.31,0.15,9.91,-0.03,-0.01,-0.0,32.53,11.704685,86.47128458677577,188.77342282942112,9.997334644794082,0.03162277660168379,3.9333210493272275,0.5201240582521747
13663171,1967,1,216346.0,252586,1.29,0.15,9.91,-0.03,-0.01,-0.0,32.53,11.744684,59.33821442539948,355.3642650437089,9.994733613258534,0.03162277660168379,2.7024105920826904,0.9832751380292258
13704172,1947,1,216385.0,252824,1.29,0.14,9.92,-0.03,-0.01,-0.0,32.53,11.785685,35.29634532719076,533.7013044213212,10.004503985705638,0.03162277660168379,1.6117346048582386,1.4790826581433154
13744172,1922,1,216453.0,252941,1.32,0.15,9.92,-0.03,-0.01,-0.0,32.53,11.825685,12.463835928534149,715.8421539057416,10.008561335177,0.03162277660168379,0.5759220551989113,1.9854654219791994
13784172,1918,1,216583.0,253159,1.31,0.14,9.92,-0.03,-0.01,-0.0,32.53,11.865685,0.8362489974448719,850.2859093012306,10.007102477740498,0.03162277660168379,0.048428547797325056,2.3592420933319183
13824172,1912,1,216622.0,253343,1.3,0.15,9.92,-0.03,-0.01,-0.0,32.53,11.905685,-1.2222691610725518,848.3680434981846,10.005943233898542,0.03162277660168379,-0.044957549414548215,2.3539100978528054
13864169,1899,1,216641.0,252700,1.31,0.15,9.89,-0.03,-0.01,-0.0,32.53,11.945682,-21.936657619888205,644.0368262808112,9.977509709341305,0.03162277660168379,-0.9846800805447447,1.785834310321495
13904172,1881,1,216006.0,250603,1.3,0.14,9.91,-0.03,-0.01,-0.0,32.53,11.985685,-38.68447096248009,262.7882138551064,9.99588415299017,0.03162277660168379,-1.7444561934861142,0.7258978566637592
13944172,1888,1,215382.0,249347,1.3,0.15,9.91,-0.03,-0.01,-0.0,32.53,12.025685,-35.188442240517695,-167.75293767605513,9.996029211641991,0.03162277660168379,-1.5858564372809916,-0.4710802999363179
13984172,1890,1,215084.0,249207,1.3,0.14,9.91,-0.03,-0.01,-0.0,32.53,12.065685,-37.016445380244335,-487.6985464445658,9.99588415299017,0.03162277660168379,-1.6687850615458704,-1.3605839017036465
14024199,1903,1,215113.0,249314,1.28,0.13,9.91,-0.03,-0.01,-0.0,32.53,12.105712,-24.12749408608814,-603.4158894511139,9.993167665960579,0.03162277660168379,-1.0840688891211119,-1.6822979386221633
14064172,1904,1,215141.0,249397,1.3,0.15,9.92,-0.03,-0.01,-0.0,32.53,12.145685,-26.9455651816575,-536.2808416065006,10.005943233898542,0.03162277660168379,-1.2119126296253726,-1.4956510048121974
14104169,1883,1,215210.0,249752,1.3,0.15,9.94,-0.03,-0.01,-0.0,32.53,12.185682,-53.239497573616156,-389.00706531528874,10.025771790740102,0.03162277660168379,-2.4047550227215573,-1.0862046774781933
14144172,1884,1,215348.0,250023,1.31,0.14,9.92,-0.03,-0.01,-0.0,32.53,12.225685,-45.99406580301913,-265.24950700059816,10.007102477740498,0.03162277660168379,-2.076061009082988,-0.7421374646461042
14184172,1887,1,215335.0,250036,1.31,0.15,9.92,-0.03,-0.01,-0.0,32.53,12.265685,-61.100230062441035,-206.8989407381409,10.007247373778666,0.03162277660168379,-2.761362578171361,-0.5799128944905809
14224858,1882,1,215331.0,250186,1.31,0.16,9.92,-0.03,-0.01,-0.0,32.45,12.306371,-47.960268001393,-188.30825673195696,10.007402260327103,0.03162277660168379,-2.1652591290392302,-0.5282276082118638
14263172,1987,1,215307.0,250465,1.3,0.15,9.94,-0.03,-0.01,-0.0,32.45,12.344685,32.464098832316466,-158.17282569656385,10.025771790740102,0.03162277660168379,1.483247787579537,-0.44444594747906196
14303172,1978,1,215403.0,250794,1.31,0.13,9.92,-0.03,-0.01,-0.0,32.45,12.384685,40.09395497749919,-86.88631633222734,10.006967572646571,0.03162277660168379,1.8293814783310491,-0.24625723946376835
14343172,1974,1,215517.0,251166,1.3,0.14,9.94,-0.03,-0.01,-0.0,32.45,12.424685,22.212248875912803,18.999166356092168,10.025627162427295,0.03162277660168379,1.0181655376761545,0.048122541489181346
14383172,1993,1,215677.0,251564,1.31,0.13,9.91,-0.03,-0.01,-0.0,32.45,12.464685,40.85866385685315,139.47669373249238,9.997054566220992,0.03162277660168379,1.864073024505004,0.38307070641576063
14423172,1975,1,215736.0,251904,1.28,0.15,9.91,-0.03,-0.01,-0.0,32.45,12.504685,29.174565019106893,270.10289844947073,9.993447853468792,0.03162277660168379,1.3340158154489723,0.7462339329034761
14463172,1985,1,215837.0,252160,1.3,0.13,9.91,-0.03,-0.01,-0.0,32.45,12.544685,21.093514332649438,421.52413764615335,9.995749096490968,0.03162277660168379,0.9674133728826618,1.1672109176101892
14503172,1984,1,215943.0,252376,1.3,0.14,9.92,-0.03,-0.01,-0.0,32.45,12.584685,39.05678055237196,585.2350623697096,10.005798318974854,0.03162277660168379,1.7823293445959947,1.6223553334087644
14543172,1990,1,216001.0,252620,1.3,0.17,9.93,-0.03,-0.01,-0.0,32.45,12.624685,23.05780047021629,701.6537819149491,10.016176915370455,0.03162277660168379,1.0565245694177787,1.946019317256581
14583169,1939,1,216073.0,252826,1.32,0.13,9.93,-0.03,-0.01,-0.0,32.45,12.664682,-12.650751020867455,675.2378813213568,10.018193449919002,0.03162277660168379,-0.5634185178189246,1.8725785883390327
14623172,1970,1,216068.0,252071,1.31,0.17,9.94,-0.03,-0.01,-0.0,32.45,12.704685,7.750856309458871,442.03817622944564,10.027392482594864,0.03162277660168379,0.36211448151127995,1.2242434591001863
14663172,1990,1,215448.0,249954,1.3,0.16,9.9,-0.03,-0.01,-0.0,32.45,12.744685,28.432689960336134,38.28502724325435,9.986270575144657,0.03162277660168379,1.3003601413074688,0.10174053858670175
14703172,1953,1,214764.0,248706,1.31,0.14,9.9,-0.03,-0.01,-0.0,32.45,12.784685,-3.0014033956328334,-397.4101126470892,9.987276906144137,0.03162277660168379,-0.12566920206340285,-1.1095665885737318
14743169,1962,1,214581.0,248586,1.3,0.15,9.92,-0.03,-0.01,-0.0,32.45,12.824682,-6.14100384629075,-703.3934058855708,10.005943233898542,0.03162277660168379,-0.268099343706042,-1.9602525613047495
14783172,1968,1,214613.0,248750,1.32,0.13,9.93,-0.03,-0.01,-0.0,32.45,12.864685,14.757224828052417,-795.7269263869855,10.018193449919002,0.03162277660168379,0.6799632257024997,-2.2169555658122744
14823172,1984,1,214683.0,248924,1.31,0.11,9.91,-0.03,-0.01,-0.0,32.45,12.904685,15.210157681354701,-709.3184808031378,9.99681449262714,0.03162277660168379,0.7005108372423472,-1.97672528459107
14863172,1968,1,214810.0,249322,1.29,0.14,9.91,-0.03,-0.01,-0.0,32.45,12.944685,14.10971839575187,-552.7295103372289,9.994588535802762,0.03162277660168379,0.6505886494414468,-1.5413811216798006
14903172,1970,1,214946.0,249589,1.3,0.14,9.92,-0.03,-0.01,-0.0,32.45,12.984685,4.298775333203351,-422.30578102620353,10.005798318974854,0.03162277660168379,0.20550844512633168,-1.1787808115063851
14943172,1949,1,214955.0,249570,1.31,0.13,9.92,-0.03,-0.01,-0.0,32.45,13.024685,-5.676692429597778,-345.47063103709223,10.006967572646571,0.03162277660168379,-0.24703553578359877,-0.9651659320251137
14983172,1977,1,214998.0,249651,1.31,0.13,9.92,-0.03,-0.01,-0.0,32.45,13.064685,14.414332337111492,-288.03484100852233,10.006967572646571,0.03162277660168379,0.6644076711596664,-0.8054845965087088
15023188,1969,1,215091.0,249849,1.31,0.15,9.9,-0.03,-0.01,-0.0,32.45,13.104701,16.576715044362285,-205.00976901536876,9.987422089808762,0.03162277660168379,0.7625056553202889,-0.5746606734701678
15063169,1951,1,215274.0,250287,1.3,0.14,9.91,-0.03,-0.01,-0.0,32.45,13.144682,-10.750203605212013,-84.58247412223831,9.99588415299017,0.03162277660168379,-0.4771988724007852,-0.23985216345232807
15103172,1936,1,215385.0,250644,1.3,0.13,9.93,-0.03,-0.01,-0.0,32.45,13.184685,-10.813052154733121,50.34294918266457,10.01557786650376,0.03162277660168379,-0.48005004023280984,0.13526362720235116
15143169,1955,1,215555.0,251082,1.31,0.13,9.95,-0.03,-0.01,-0.0,32.45,13.224682,-6.53335117161331,176.45498798500063,10.03670762750415,0.03162277660168379,-0.28589845094820476,0.48587669913253106
15183171,1954,1,215691.0,251434,1.28,0.16,9.94,-0.03,-0.01,-0.0,32.45,13.264684,12.203907162229003,300.80887099423745,10.023352732494253,0.03162277660168379,0.5641302072922516,0.8316017967709263
15223172,1984,1,215777.0,251813,1.3,0.14,9.91,-0.03,-0.01,-0.0,32.45,13.304685,26.58304151315131,452.2878416766771,9.99588415299017,0.03162277660168379,1.2164495627284602,1.2527392848979362
15263859,1914,1,215910.0,252162,1.31,0.15,9.92,-0.03,-0.01,-0.0,32.35,13.345372,-27.254687559430685,635.6697962118394,10.007247373778666,0.03162277660168379,-1.2259361796735702,1.7625725333866826
15304172,1920,1,216034.0,252565,1.3,0.15,9.93,-0.03,-0.01,-0.0,32.35,13.385685,-28.452264544789877,791.6134277212424,10.015857427100288,0.03162277660168379,-1.2802650862759788,2.19612254344684
15344172,1961,1,216187.0,252941,1.3,0.14,9.94,-0.03,-0.01,-0.0,32.35,13.425685,17.711969877770727,812.1965533130509,10.025627162427295,0.03162277660168379,0.8140072744798134,2.2533471586557017
15384169,1923,1,216237.0,252490,1.31,0.14,9.91,-0.03,-0.01,-0.0,32.35,13.465682,-16.119528368773988,617.3847409968823,9.99718960508402,0.03162277660168379,-0.7207819966289667,1.711736947504375
15424172,1918,1,215655.0,250430,1.31,0.12,9.93,-0.03,-0.01,-0.0,32.35,13.505685,-25.445771768522892,235.0033679376051,10.016755961887062,0.03162277660168379,-1.143873466163444,0.6486512252338231
15464172,1941,1,215006.0,249194,1.3,0.15,9.94,-0.03,-0.01,-0.0,32.35,13.545685,8.282211927169781,-191.7047858887746,10.025771790740102,0.03162277660168379,0.38621979589206923,-0.5376705411220104
15504172,1937,1,214817.0,249191,1.3,0.15,9.92,-0.03,-0.01,-0.0,32.35,13.585685,-3.83672402278593,-488.34479990125976,10.005943233898542,0.03162277660168379,-0.1635640989180335,-1.362380597021943
15544169,1918,1,214901.0,249582,1.29,0.14,9.92,-0.03,-0.01,-0.0,32.35,13.625682,-11.042982650211894,-561.4197568635019,10.004503985705638,0.03162277660168379,-0.4904809958762711,-1.5655414957356255
15584172,1921,1,215046.0,249964,1.28,0.15,9.92,-0.03,-0.01,-0.0,32.35,13.665685,-15.157293190111629,-448.0225369381778,10.003364434029184,0.03162277660168379,-0.6771295335387381,-1.2502777984396332
15624172,1907,1,215185.0,250612,1.31,0.13,9.94,-0.03,-0.01,-0.0,32.35,13.705685,-21.146495193721584,-269.92099477675674,10.026794103800077,0.03162277660168379,-0.9488338166495986,-0.7551250009292216
15664172,1931,1,215375.0,250916,1.29,0.14,9.94,-0.03,-0.01,-0.0,32.35,13.745685,1.549439462566949,-139.0631310693606,10.024335389441037,0.03162277660168379,0.08078292554759918,-0.3913177227629988
15704172,1929,1,215324.0,250942,1.29,0.14,9.92,-0.03,-0.01,-0.0,32.35,13.785685,-0.3825780659984143,-91.53627762325759,10.004503985705638,0.03162277660168379,-0.006864383265839692,-0.25918492843055985
15744172,1909,1,215334.0,250993,1.3,0.16,9.92,-0.03,-0.01,-0.0,32.35,13.825685,-14.194626954491788,-90.69540022361045,10.006098140634041,0.03162277660168379,-0.6334575152520839,-0.25684714521012486
15784169,1909,1,215381.0,251285,1.29,0.15,9.92,-0.03,-0.01,-0.0,32.35,13.865682,-19.93619518405952,-78.98471307420931,10.00464891937743,0.03162277660168379,-0.8939277212672605,-0.2242894287949593
15824172,1899,1,215511.0,251649,1.29,0.13,9.94,-0.03,-0.01,-0.0,32.35,13.905685,-22.653275608809597,-24.96661004943604,10.02420071626661,0.03162277660168379,-1.0171899502781205,-0.0741098486278209
15864172,1923,1,215675.0,252101,1.29,0.15,9.94,-0.03,-0.01,-0.0,32.35,13.945685,-1.183780871833183,70.24569907812548,10.024480036390914,0.03162277660168379,-0.04321150160556749,0.19059668142125066
15904172,1910,1,215824.0,252392,1.27,0.15,9.91,-0.03,-0.01,-0.0,32.35,13.985685,-14.522851179183897,196.7283180348402,9.992171936070756,0.03162277660168379,-0.6483476337713515,0.5422400296641203
15944172,1899,1,215908.0,252688,1.3,0.13,9.92,-0.03,-0.01,-0.0,32.35,14.025685,-19.863609633152205,350.3177896290115,10.00566339629712,0.03162277660168379,-0.8906348276461084,0.9692450718724142
15984172,1951,1,216019.0,252982,1.3,0.16,9.93,-0.03,-0.01,-0.0,32.35,14.065685,25.04760464413451,515.01225464719,10.016012180503775,0.03162277660168379,1.1467934092865262,1.4271238981788166
16024196,1938,1,216138.0,253283,1.3,0.12,9.93,-0.03,-0.01,-0.0,32.35,14.105709,19.300541568568054,634.6869950400085,10.015453060146605,0.03162277660168379,0.8860739257896436,1.759840177766833
16064172,1916,1,216258.0,253641,1.3,0.14,9.91,-0.03,-0.01,-0.0,32.35,14.145685,-6.777500240740566,619.8288925991834,9.99588415299017,0.03162277660168379,-0.2969744420000045,1.7185321076626292
16104169,1915,1,216298.0,253073,1.3,0.15,9.93,-0.03,-0.01,-0.0,32.35,14.185682,-7.992143823269483,406.2171852959915,10.015857427100288,0.03162277660168379,-0.3520775865637222,1.1246549678662405
16144174,1919,1,215753.0,250974,1.3,0.13,9.91,-0.03,-0.01,-0.0,32.35,14.225687,-0.12006251876985476,23.03228684214463,9.995749096490968,0.03162277660168379,0.005044815743009794,0.05933530734808363
16184169,1936,1,215107.0,249734,1.29,0.14,9.91,-0.03,-0.01,-0.0,32.35,14.265682,9.960337394448079,-398.2150467368422,9.994588535802762,0.03162277660168379,0.46234911608900103,-1.1118044432352678
16224172,1920,1,214927.0,249675,1.3,0.15,9.94,-0.03,-0.01,-0.0,32.35,14.305685,0.28554538128557266,-696.9729157660211,10.025771790740102,0.03162277660168379,0.023445498111418113,-1.9424024988880992
16262856,1949,1,214989.0,249916,1.31,0.15,9.91,-0.03,-0.01,-0.0,32.27,14.344369,23.116243890732832,-784.8390974533718,9.997334644794082,0.03162277660168379,1.0591758955317456,-2.186685536199575
16303172,1968,1,215112.0,250198,1.3,0.17,9.91,-0.03,-0.01,-0.0,32.27,14.384685,44.87185760413176,-692.0503436136191,9.996349333631754,0.03162277660168379,2.0461343290714704,-1.9287169050261466
16343212,1957,1,215283.0,250753,1.29,0.14,9.93,-0.03,-0.01,-0.0,32.27,14.424725,30.904308420699962,-526.5090077759547,10.014419603751383,0.03162277660168379,1.4124868188668416,-1.4684836327654338
16383172,1957,1,215415.0,250977,1.29,0.14,9.93,-0.03,-0.01,-0.0,32.27,14.464685,31.223342760325515,-387.33195774602063,10.014419603751383,0.03162277660168379,1.4269600319064852,-1.081547591475523
16423172,1917,1,215479.0,250927,1.3,0.16,9.9,-0.03,-0.01,-0.0,32.27,14.504685,-10.881008118290195,-304.3589120429774,9.986270575144657,0.03162277660168379,-0.4831329094281139,-0.8508683104360325
16463172,1905,1,215463.0,251056,1.3,0.13,9.95,-0.03,-0.01,-0.0,32.27,14.544685,-24.71624317100927,-242.01569911665447,10.035407316098334,0.03162277660168379,-1.1107778977593665,-0.6775434985807944
16503169,1952,1,215638.0,251595,1.3,0.14,9.9,-0.03,-0.01,-0.0,32.27,14.584682,25.245831763157458,-148.86605261547263,9.98597015817692,0.03162277660168379,1.1557861193729113,-0.4185715239846251
16543172,1955,1,215891.0,252202,1.3,0.14,9.92,-0.03,-0.01,-0.0,32.27,14.624685,15.889427561792925,-3.7088161376425655,10.005798318974854,0.03162277660168379,0.7313263842537896,-0.015009539913007528
16583169,1938,1,216066.0,252571,1.31,0.14,9.93,-0.03,-0.01,-0.0,32.27,14.664682,16.31115571873133,174.28996371202848,10.017015523597834,0.03162277660168379,0.7504583732031602,0.4798575607666853
16623172,1965,1,216208.0,252769,1.28,0.15,9.93,-0.03,-0.01,-0.0,32.27,14.704685,14.856660388715955,343.7679861185642,10.01328118051221,0.03162277660168379,0.6844741885502261,0.9510354960765904
16663172,1892,1,216233.0,252870,1.3,0.14,9.9,-0.03,-0.01,-0.0,32.27,14.744685,-28.39713604207076,459.2078806459997,9.98597015817692,0.03162277660168379,-1.2777641436961085,1.2719781786939013
16703172,1946,1,216167.0,252802,1.29,0.15,9.91,-0.03,-0.01,-0.0,32.27,14.784685,-8.023665654875051,476.715082130128,9.994733613258534,0.03162277660168379,-0.35350759621334993,1.3206511979515767
16743172,1943,1,216178.0,252908,1.29,0.16,9.9,-0.03,-0.01,-0.0,32.27,14.824685,13.998434493770723,362.69704449653574,9.984973710531241,0.03162277660168379,0.6455401784111924,1.003661521075271
16783172,1957,1,216169.0,252035,1.29,0.14,9.94,-0.03,-0.01,-0.0,32.27,14.864685,7.353289410857018,119.89413723272366,10.024335389441037,0.03162277660168379,0.3440785847243431,0.3286278446887243
16823172,1954,1,215618.0,250369,1.29,0.14,9.94,-0.03,-0.01,-0.0,32.27,14.904685,10.824756901916766,-186.60322469864917,10.024335389441037,0.03162277660168379,0.5015641037354786,-0.5234873270728491
16863172,1946,1,215192.0,249722,1.29,0.14,9.93,-0.03,-0.01,-0.0,32.27,14.944685,1.2824626916114608,-441.16126333444623,10.014419603751383,0.03162277660168379,0.06867134004489096,-1.231202282427016
16903172,1957,1,215160.0,250027,1.3,0.13,9.93,-0.03,-0.01,-0.0,32.27,14.984685,2.4070181734654414,-537.6426109649913,10.01557786650376,0.03162277660168379,0.11968757573561536,-1.4994369569114188
16943172,1936,1,215324.0,250496,1.3,0.15,9.91,-0.03,-0.01,-0.0,32.27,15.024685,-9.34444080915763,-446.51953547600965,9.996029211641991,0.03162277660168379,-0.4134254727900097,-1.2460991968979336
16983169,1936,1,215520.0,251042,1.3,0.15,9.93,-0.03,-0.01,-0.0,32.27,15.064682,-24.42251880430595,-232.5318964331162,10.015857427100288,0.03162277660168379,-1.0974528891122688,-0.6511769024648855
17023188,1936,1,215694.0,251485,1.3,0.13,9.94,-0.03,-0.01,-0.0,32.27,15.104701,-15.100172095484947,-7.481993498928747,10.025492506605348,0.03162277660168379,-0.6745381956515377,-0.025499619354602068
17063169,1939,1,215782.0,251526,1.29,0.13,9.9,-0.03,-0.01,-0.0,32.27,15.144682,-23.659906459220213,143.04000128052166,9.984538046399543,0.03162277660168379,-1.0628564536625846,0.3929773118240256
17103172,1938,1,215754.0,251527,1.3,0.15,9.93,-0.03,-0.01,-0.0,32.27,15.184685,-21.67998749493028,204.67387043776645,10.015857427100288,0.03162277660168379,-0.9730360631521716,0.5643300264846348
17143169,1942,1,215710.0,251585,1.28,0.13,9.92,-0.03,-0.01,-0.0,32.27,15.224682,-20.62636727049396,226.62498325172956,10.003084524285496,0.03162277660168379,-0.9252378543792792,0.6253578805188761
17183172,1931,1,215764.0,251965,1.31,0.14,9.94,-0.03,-0.01,-0.0,32.27,15.264685,-39.187655670334806,278.39675986644966,10.026928742142331,0.03162277660168379,-1.767283515095505,0.7692922884513392
17223172,1937,1,215929.0,252372,1.27,0.15,9.93,-0.03,-0.01,-0.0,32.27,15.304685,-24.326030901027746,405.4039985487318,10.012007790648187,0.03162277660168379,-1.0930756487765325,1.122394169403086
17263172,1947,1,216077.0,252683,1.29,0.13,9.92,-0.03,-0.01,-0.0,32.27,15.344685,-33.052414738944584,604.4496116416536,10.004369045572039,0.03162277660168379,-1.4889540752183676,1.675775071999695
17303859,1911,1,216057.0,252936,1.3,0.13,9.92,-0.03,-0.01,-0.0,32.35,15.385372,-51.56464141659494,819.1594589594048,10.00566339629712,0.03162277660168379,-2.328774017041172,2.2727052291572383
17342171,1979,1,216077.0,253082,1.3,0.14,9.93,-0.03,-0.01,-0.0,32.35,15.423684,-5.721683549529356,952.4900381380177,10.015712655622664,0.03162277660168379,-0.24907658899569549,2.643387079930533
17382172,1991,1,216064.0,253035,1.28,0.15,9.93,-0.03,-0.01,-0.0,32.35,15.463685,21.655780114465028,903.1708400073965,10.01328118051221,0.03162277660168379,0.9929209481946802,2.5062712603313186
17422172,2004,1,215997.0,252198,1.28,0.14,9.91,-0.03,-0.01,-0.0,32.35,15.503685,20.273352683407634,625.492936326077,9.993302757347042,0.03162277660168379,0.9302061735248928,1.7342791195220257
17462172,2007,1,215321.0,249928,1.27,0.14,9.91,-0.03,-0.01,-0.0,32.35,15.543685,28.378985560829538,179.31255520297802,9.992026821421167,0.03162277660168379,1.2979238041528622,0.4938212255239597
17502172,2001,1,214529.0,248375,1.3,0.17,9.9,-0.03,-0.01,-0.0,32.35,15.583685,18.877810253884974,-280.5769893668477,9.986435800624767,0.03162277660168379,0.8668964278967276,-0.7847504913517425
17542169,2000,1,214215.0,248126,1.29,0.14,9.92,-0.03,-0.01,-0.0,32.35,15.623682,15.417366495716447,-588.6327094385831,10.004503985705638,0.03162277660168379,0.7099110081376476,-1.6411981657034636
17582171,2007,1,214218.0,248489,1.29,0.14,9.93,-0.03,-0.01,-0.0,32.35,15.663684,22.84490867248196,-670.6169498535035,10.014419603751383,0.03162277660168379,1.0468665860589401,-1.869128398651257
17622172,2002,1,214245.0,248786,1.28,0.13,9.93,-0.03,-0.01,-0.0,32.35,15.703685,16.864249446711387,-582.6933458502466,10.013001547987496,0.03162277660168379,0.7755498519616585,-1.6246857174646334
17662171,1991,1,214296.0,248933,1.28,0.14,9.95,-0.03,-0.01,-0.0,32.35,15.743684,1.8791211641738284,-457.67702039436256,10.032970646822404,0.03162277660168379,0.09573916351317031,-1.2771189163425605
17702172,1978,1,214234.0,248678,1.29,0.14,9.92,-0.03,-0.01,-0.0,32.35,15.783685,-4.811882564772869,-405.24427379453084,10.004503985705638,0.03162277660168379,-0.207802839306201,-1.131346898621734
17742172,2001,1,214044.0,248327,1.29,0.12,9.92,-0.03,-0.01,-0.0,32.35,15.823685,7.81712480326961,-443.04527824271696,10.004244099381022,0.03162277660168379,0.3651207974767175,-1.2364401666197091
17782212,1999,1,213905.0,248173,1.28,0.15,9.92,-0.03,-0.01,-0.0,32.35,15.863725,17.50223988119071,-500.6690615342812,10.003364434029184,0.03162277660168379,0.8044927284128633,-1.3966441556120752
17822172,1997,1,213939.0,248419,1.3,0.14,9.89,-0.03,-0.01,-0.0,32.35,15.903685,4.055697268291766,-479.37330726940843,9.976056335045428,0.03162277660168379,0.194481040920067,-1.3374383106127716
17862169,1980,1,214104.0,248836,1.29,0.15,9.91,-0.03,-0.01,-0.0,32.35,15.943682,-3.3154219863724026,-318.8694464981905,9.994733613258534,0.03162277660168379,-0.13991487219257048,-0.8912100819988973
17902172,1999,1,214290.0,249147,1.3,0.15,9.89,-0.03,-0.01,-0.0,32.35,15.983685,11.146353160529769,-33.88997767206944,9.976201682003026,0.03162277660168379,0.5161535399984254,-0.09891833926714479
17942169,2000,1,214414.0,249525,1.29,0.14,9.9,-0.03,-0.01,-0.0,32.35,16.023682,12.994063628381905,287.68982609988575,9.984673254543686,0.03162277660168379,0.5999762008072613,0.7951286045611958
17982175,1986,1,214552.0,249872,1.29,0.14,9.91,-0.03,-0.01,-0.0,32.35,16.063688,5.059155381482962,517.9817907027239,9.994588535802762,0.03162277660168379,0.24000361089049982,1.4353797171198617
18022172,1998,1,214653.0,250112,1.31,0.14,9.92,-0.03,-0.01,-0.0,32.35,16.103685,9.647179786914219,545.2587571509913,10.007102477740498,0.03162277660168379,0.44814250505727854,1.5112143566212757
18062172,1993,1,214598.0,249181,1.29,0.15,9.94,-0.03,-0.01,-0.0,32.35,16.143685,16.03740373996139,336.22711672380933,10.024480036390914,0.03162277660168379,0.7380394257211694,0.930070587344417
18102172,1999,1,213936.0,247045,1.29,0.14,9.92,-0.03,-0.01,-0.0,32.35,16.183685,15.589637519189008,-31.566057161286086,10.004503985705638,0.03162277660168379,0.717726202032456,-0.0924574421399134
18142172,2000,1,213339.0,245995,1.29,0.16,9.92,-0.03,-0.01,-0.0,32.35,16.223685,21.649630828053084,-400.9645950111775,10.004803846153107,0.03162277660168379,0.9926419815718824,-1.119448658458812
18182172,2001,1,213244.0,246026,1.29,0.16,9.9,-0.03,-0.01,-0.0,32.35,16.263685,28.528756431810287,-620.6891678946001,9.984973710531241,0.03162277660168379,1.304718263098509,-1.730320611753857
18222172,2001,1,213321.0,246145,1.28,0.13,9.91,-0.03,-0.01,-0.0,32.35,16.303685,18.756483878445692,-626.986325701009,9.993167665960579,0.03162277660168379,0.8613923731259419,-1.7478277892121064
18262172,1991,1,213398.0,246420,1.3,0.15,9.94,-0.03,-0.01,-0.0,32.35,16.343685,29.813202125505654,-464.13522154957735,10.025771790740102,0.03162277660168379,1.3629880286181861,-1.2950738218985791
18302172,2000,1,213529.0,246885,1.27,0.15,9.92,-0.03,-0.01,-0.0,32.35,16.383685,18.102280268573235,-238.2594740016691,10.002089781640635,0.03162277660168379,0.831713974781422,-0.6671005492879795
18342859,1911,1,213680.0,247221,1.3,0.15,9.92,-0.03,-0.01,-0.0,32.45,16.424372,-45.21969724304698,-47.23989803554261,10.005943233898542,0.03162277660168379,-2.0409312448299195,-0.136033404831955
18383172,1927,1,213794.0,247368,1.29,0.15,9.95,-0.03,-0.01,-0.0,32.45,16.464685,-46.433940995931074,66.4756473978192,10.034395846287905,0.03162277660168379,-2.096016250845806,0.18011529190823586
18423172,1931,1,213789.0,247585,1.3,0.14,9.91,-0.03,-0.01,-0.0,32.45,16.504685,-26.94118353053007,122.21793578034656,9.99588415299017,0.03162277660168379,-1.2117138529974174,0.3350884027374763
18463172,1918,1,213927.0,247915,1.29,0.15,9.93,-0.03,-0.01,-0.0,32.45,16.544685,-42.75345081045784,175.94892853962025,10.014564393921486,0.03162277660168379,-1.9290482730187404,0.4844697671821072
18503172,1936,1,214004.0,248287,1.3,0.15,9.92,-0.03,-0.01,-0.0,32.45,16.584685,-24.355202669117414,281.73337931323744,10.005943233898542,0.03162277660168379,-1.0943990461725632,0.7785686621045623
18543172,1943,1,214121.0,248603,1.3,0.13,9.93,-0.03,-0.01,-0.0,32.45,16.624685,-7.37698292314319,455.07062144568505,10.01557786650376,0.03162277660168379,-0.32417038769717826,1.2604758893695067
18583169,1950,1,214246.0,248924,1.28,0.15,9.92,-0.03,-0.01,-0.0,32.45,16.664682,-9.134319686285382,652.0478321401736,10.003364434029184,0.03162277660168379,-0.4038931830088265,1.8081062789636333
18623172,1938,1,214385.0,249242,1.27,0.15,9.92,-0.03,-0.01,-0.0,32.45,16.704685,-6.261699989040943,779.6266283680508,10.002089781640635,0.03162277660168379,-0.27357480753585117,2.1627971878047796
18663172,1941,1,214472.0,249455,1.29,0.15,9.91,-0.03,-0.01,-0.0,32.45,16.744685,-13.954711614978677,743.0581577032287,9.994733613258534,0.03162277660168379,-0.6225735902666821,2.061130574868026
18703172,1936,1,214369.0,248330,1.28,0.13,9.93,-0.03,-0.01,-0.0,32.45,16.784685,-4.8701256063287595,509.379764205451,10.013001547987496,0.03162277660168379,-0.21044507509030058,1.411464609857495
18743172,1961,1,213739.0,246712,1.29,0.14,9.9,-0.03,-0.01,-0.0,32.45,16.824685,11.299435114793093,141.54859321298395,9.984673254543686,0.03162277660168379,0.5230982085227557,0.3888309419054452
18783172,1942,1,213318.0,246166,1.28,0.15,9.93,-0.03,-0.01,-0.0,32.45,16.864685,2.906507650097266,-230.41149288838986,10.01328118051221,0.03162277660168379,0.1423472606298414,-0.6452818173674715
18823172,1940,1,213222.0,246241,1.28,0.13,9.92,-0.03,-0.01,-0.0,32.45,16.904685,-4.245366167064846,-485.2015923852868,10.003084524285496,0.03162277660168379,-0.1821024318701138,-1.3536419416694858
18863172,1936,1,213236.0,246253,1.27,0.13,9.9,-0.03,-0.01,-0.0,32.45,16.944685,-2.4080713681138297,-575.5316823499833,9.981973752720451,0.03162277660168379,-0.09875228507068906,-1.604775066080326
18903169,1938,1,213184.0,246574,1.29,0.13,9.93,-0.03,-0.01,-0.0,32.45,16.984682,-1.4430344457402742,-536.4125695856517,10.014284797228408,0.03162277660168379,-0.05497271894301866,-1.4960172311603552
18943172,1936,1,213328.0,247033,1.29,0.14,9.95,-0.03,-0.01,-0.0,32.45,17.024685,-1.9693901938049274,-440.6768652370967,10.034251342277608,0.03162277660168379,-0.07885121078600327,-1.22985557273489
18983172,1926,1,213454.0,247228,1.3,0.15,9.94,-0.03,-0.01,-0.0,32.45,17.064685,-10.21367259317064,-344.7507496129565,10.025771790740102,0.03162277660168379,-0.45285877268373126,-0.9631645383442351
19023188,1926,1,213508.0,247416,1.29,0.15,9.93,-0.03,-0.01,-0.0,32.45,17.104701,-11.25554903535005,-264.50317921481553,10.014564393921486,0.03162277660168379,-0.5001242166680591,-0.7400625455493618
19063172,1934,1,213585.0,247687,1.3,0.13,9.91,-0.03,-0.01,-0.0,32.45,17.144685,-0.7894590410248746,-188.75378746389237,9.995749096490968,0.03162277660168379,-0.02532281955908514,-0.5294662599698297
19103172,1938,1,213732.0,248060,1.28,0.14,9.93,-0.03,-0.01,-0.0,32.45,17.184685,1.6608437139641397,-107.48042382454071,10.013136371786814,0.03162277660168379,0.08583685631218707,-0.3035123862373258
19143172,1936,1,213863.0,248438,1.27,0.15,9.9,-0.03,-0.01,-0.0,32.45,17.224685,0.9095230333778803,-25.142811072213544,9.982254254425701,0.03162277660168379,0.05175267501691417,-0.07459971765586897
19183172,1939,1,213965.0,248790,1.3,0.14,9.9,-0.03,-0.01,-0.0,32.45,17.264685,3.7900330328792866,50.87524069861357,9.98597015817692,0.03162277660168379,0.18242899949828234,0.1367434888027315
19223169,1951,1,214106.0,249052,1.3,0.13,9.92,-0.03,-0.01,-0.0,32.45,17.304682,13.859305407281607,129.32807506635513,10.00566339629712,0.03162277660168379,0.639228491364803,0.3548558079796215
19263172,1955,1,214186.0,249336,1.28,0.15,9.89,-0.03,-0.01,-0.0,32.45,17.344685,20.96716758464073,234.66070541898205,9.973615192095593,0.03162277660168379,0.961681565444809,0.6476985647310612
19303172,1942,1,214280.0,249555,1.29,0.15,9.91,-0.03,-0.01,-0.0,32.45,17.384685,1.7827890631695638,378.7698787334603,9.994733613258534,0.03162277660168379,0.09136899125513816,1.04834675366647
19343858,1936,1,214470.0,249905,1.29,0.15,9.9,-0.03,-0.01,-0.0,32.39,17.425371,1.9739383655282887,528.4674744964176,9.984818476066554,0.03162277660168379,0.10004061130288648,1.4645317143527172
19382169,1977,1,214631.0,250301,1.29,0.13,9.93,-0.03,-0.01,-0.0,32.39,17.463682,34.246866048606904,606.0001494276404,10.014284797228408,0.03162277660168379,1.5641242529523491,1.680085832664985
19422192,1972,1,214743.0,250207,1.29,0.14,9.91,-0.03,-0.01,-0.0,32.39,17.503705,35.70936180537024,536.2700585833364,9.994588535802762,0.03162277660168379,1.6304713824872268,1.4862242347630483
19462172,1973,1,214448.0,248990,1.29,0.14,9.92,-0.03,-0.01,-0.0,32.39,17.543685,28.512022439239598,309.02981885518824,10.004503985705638,0.03162277660168379,1.3039591139744253,0.854457440142322
19502172,1963,1,214002.0,248082,1.29,0.14,9.91,-0.03,-0.01,-0.0,32.39,17.583685,23.151091425599393,1.6864217571970086,9.994588535802762,0.03162277660168379,1.0607567780054696,-9.854315435697467e-06
19542172,1946,1,213798.0,247876,1.29,0.16,9.92,-0.03,-0.01,-0.0,32.39,17.623685,-0.8536867785276846,-262.75157934225507,10.004803846153107,0.03162277660168379,-0.02823655520592341,-0.7351927978397595
19582172,1941,1,213798.0,247927,1.29,0.15,9.91,-0.03,-0.01,-0.0,32.39,17.663685,-2.437551784957251,-391.73092067669376,9.994733613258534,0.03162277660168379,-0.10008968453048742,-1.093777462002378
19622190,1934,1,213904.0,248085,1.29,0.13,9.93,-0.03,-0.01,-0.0,32.39,17.703703,-15.876687677588563,-374.4134438821604,10.014284797228408,0.03162277660168379,-0.7097653610456433,-1.0456319098832216
19662172,1903,1,213936.0,248282,1.28,0.15,9.95,-0.03,-0.01,-0.0,32.39,17.743685,-44.947316351912086,-274.8726200782745,10.033115169278183,0.03162277660168379,-2.0285744976849247,-0.7688913675227668
19702172,1922,1,214039.0,248565,1.29,0.13,9.92,-0.03,-0.01,-0.0,32.39,17.783685,-30.18383169745517,-181.97229458811327,10.004369045572039,0.03162277660168379,-1.3588188254201354,-0.5106125480480341
19742172,1929,1,214114.0,248598,1.3,0.13,9.92,-0.03,-0.01,-0.0,32.39,17.823685,-24.719159950472626,-155.714266552646,10.00566339629712,0.03162277660168379,-1.1109102194731117,-0.4376107318869792
19782169,1931,1,214099.0,248688,1.3,0.16,9.94,-0.03,-0.01,-0.0,32.39,17.863682,-23.75653145372172,-200.4021047927886,10.025926391112193,0.03162277660168379,-1.067239913236297,-0.5618505775995134
19822198,1963,1,214034.0,248735,1.31,0.15,9.91,-0.03,-0.01,-0.0,32.39,17.903711,4.65470535111886,-271.4267856250067,9.997334644794082,0.03162277660168379,0.22165545607989096,-0.7593113574420741
19862172,1968,1,214066.0,248933,1.31,0.16,9.89,-0.03,-0.01,-0.0,32.39,17.943685,8.244851894501222,-305.0602651437501,9.977665057517216,0.03162277660168379,0.3845249322212345,-0.8528181922039032
19902172,1965,1,214130.0,249233,1.3,0.15,9.91,-0.03,-0.01,-0.0,32.39,17.983685,4.041348162403045,-254.17725324245228,9.996029211641991,0.03162277660168379,0.19383008382654654,-0.7113547024276721
19942172,1969,1,214255.0,249682,1.3,0.13,9.92,-0.03,-0.01,-0.0,32.39,18.023685,3.564251562477127,-113.63464325599188,10.00566339629712,0.03162277660168379,0.17218626724140423,-0.32062217052663927
19982163,1971,1,214462.0,250206,1.3,0.13,9.91,-0.03,-0.01,-0.0,32.39,18.063676,5.877347085450673,76.21954387373589,9.995749096490968,0.03162277660168379,0.2771214423210988,0.20720499332322495
20022160,1979,1,214717.0,250677,1.28,0.14,9.92,-0.03,-0.01,-0.0,32.39,18.103673,11.605679107203754,250.80418720768185,10.003219481746864,0.03162277660168379,0.5369911786320947,0.6925802096187189
20062163,1971,1,214864.0,250987,1.28,0.17,9.92,-0.03,-0.01,-0.0,32.39,18.143676,-2.621403920817604,357.1172871504733,10.003684321288832,0.03162277660168379,-0.10843026358296026,0.9881488397935558
20102169,1967,1,214894.0,250979,1.25,0.14,9.94,-0.03,-0.01,-0.0,32.39,18.183682,1.3647999211418942,381.9865877764626,10.019266440214073,0.03162277660168379,0.07240662529815452,1.0572897558555023
20142172,1986,1,214874.0,250980,1.3,0.16,9.94,-0.03,-0.01,-0.0,32.39,18.223685,3.3737847773748855,352.1866440295759,10.025926391112193,0.03162277660168379,0.16354561006012325,0.9744408072565605
20182169,1957,1,214729.0,251158,1.33,0.13,9.91,-0.03,-0.01,-0.0,32.39,18.263682,-9.428719703522543,306.05386366728214,9.999694995348609,0.03162277660168379,-0.4172488430087788,0.8461837749136302
20222172,1968,1,214827.0,251422,1.31,0.15,9.95,-0.03,-0.01,-0.0,32.39,18.303685,-17.13355629223739,260.81396684282976,10.036986599572602,0.03162277660168379,-0.7667840733385105,0.7204091117644065
20262169,1936,1,214911.0,251232,1.28,0.14,9.94,-0.03,-0.01,-0.0,32.39,18.343682,-38.386290681886805,204.22616329111904,10.023053426975235,0.03162277660168379,-1.7309290392295769,0.5630853239209312
20302172,1963,1,214738.0,250613,1.28,0.14,9.91,-0.03,-0.01,-0.0,32.39,18.383685,-17.590426030511324,115.64413937581423,9.993302757347042,0.03162277660168379,-0.7875102843826437,0.31681212258591035
20342172,1978,1,214569.0,250258,1.31,0.14,9.95,-0.03,-0.01,-0.0,32.39,18.423685,-7.0444890797584945,-6.657688244484288,10.036842132862306,0.03162277660168379,-0.3090865749786957,-0.02320790953677929
20382858,1943,1,214500.0,250295,1.26,0.16,9.92,-0.03,-0.01,-0.0,32.45,18.464371,-33.705189650445355,-137.97756661209561,10.000979951984705,0.03162277660168379,-1.5185676596750564,-0.38829966760542217
20421172,1997,1,214489.0,250281,1.28,0.14,9.93,-0.03,-0.01,-0.0,32.45,18.502685,7.0338067588906155,-242.950216363396,10.013136371786814,0.03162277660168379,0.3295850336858964,-0.6801416166174502
20461172,2017,1,214407.0,250250,1.3,0.14,9.9,-0.03,-0.01,-0.0,32.45,18.542685,37.77574764689378,-297.5042587248165,9.98597015817692,0.03162277660168379,1.7242144025695643,-0.8318111999514126
20501169,2011,1,214440.0,250373,1.32,0.13,9.91,-0.03,-0.01,-0.0,32.45,18.582682,23.219234406238005,-299.95417421058653,9.998369867133341,0.03162277660168379,1.0638481313597714,-0.8386223846931126
20541172,2011,1,214487.0,250636,1.29,0.16,9.93,-0.03,-0.01,-0.0,32.45,18.622685,26.046548961591984,-266.929230596328,10.014719167305692,0.03162277660168379,1.1921112077977227,-0.7468073839931028
20581172,2007,1,214601.0,250797,1.29,0.16,9.93,-0.03,-0.01,-0.0,32.45,18.662685,22.734686732385047,-220.36865149060282,10.014719167305692,0.03162277660168379,1.0418662916626131,-0.6173609978578873
20621172,2015,1,214629.0,250985,1.32,0.12,9.95,-0.03,-0.01,-0.0,32.45,18.702685,27.04408466154495,-175.16157626702645,10.037893205249794,0.03162277660168379,1.237365103403489,-0.49167758438171705
20661172,2011,1,214716.0,251200,1.28,0.15,9.92,-0.03,-0.01,-0.0,32.45,18.742685,27.596325172649465,-134.73185328930603,10.003364434029184,0.03162277660168379,1.262417875389471,-0.37927602854990256
20701172,1993,1,214775.0,251334,1.3,0.15,9.92,-0.03,-0.01,-0.0,32.45,18.782685,5.984005704176965,-95.7314907835891,10.005943233898542,0.03162277660168379,0.28196008418376345,-0.270848339691805
20741169,1987,1,214827.0,251538,1.32,0.17,9.93,-0.03,-0.01,-0.0,32.45,18.822682,2.888211317839204,-56.27471294162133,10.018792342393368,0.03162277660168379,0.1415172348873905,-0.16115173801111982
20781171,1999,1,214907.0,251692,1.3,0.13,9.94,-0.03,-0.01,-0.0,32.45,18.862684,14.494763103591767,-19.77463807565605,10.025492506605348,0.03162277660168379,0.6680564684006691,-0.05967527711196748
20821169,1996,1,214995.0,251884,1.29,0.13,9.92,-0.03,-0.01,-0.0,32.45,18.902682,11.93148251493353,9.192227318187017,10.004369045572039,0.03162277660168379,0.5517714751188283,0.020857570952139838
20861172,1973,1,214997.0,252090,1.32,0.14,9.92,-0.03,-0.01,-0.0,32.45,18.942685,-9.16583248343557,32.65719229615001,10.008416458161602,0.03162277660168379,-0.40532278280414963,0.08609419333799008
20901172,1965,1,215105.0,252294,1.3,0.14,9.91,-0.03,-0.01,-0.0,32.45,18.982685,-17.581684329954488,61.786948212173655,9.99588415299017,0.03162277660168379,-0.7871137111026753,0.1670799049582846
20941172,1975,1,215124.0,252451,1.29,0.13,9.93,-0.03,-0.01,-0.0,32.45,19.022685,-5.223042988252981,109.01836808827198,10.014284797228408,0.03162277660168379,-0.22645541573255742,0.2983913433558394
20981172,1973,1,215238.0,252668,1.29,0.13,9.91,-0.03,-0.01,-0.0,32.45,19.062685,-6.816855514049635,174.39794796955576,9.994453461795697,0.03162277660168379,-0.2987598211397676,0.48015777550122846
21021179,1972,1,215302.0,252881,1.29,0.14,9.92,-0.03,-0.01,-0.0,32.45,19.102692,-6.878001553660738,238.12809633970326,10.004503985705638,0.03162277660168379,-0.30153375343451894,0.6573385054840797
21061172,1973,1,215434.0,253097,1.27,0.14,9.92,-0.03,-0.01,-0.0,32.45,19.142685,-2.6707157699556223,268.7171161913267,10.001944810885531,0.03162277660168379,-0.11066732965801342,0.7423812208296052
21101172,1970,1,215429.0,252771,1.28,0.13,9.91,-0.03,-0.01,-0.0,32.45,19.182685,-8.18599023877796,243.63843882009695,9.993167665960579,0.03162277660168379,-0.36087156301126805,0.6726582015478817
21141172,1973,1,215334.0,252432,1.31,0.11,9.94,-0.03,-0.01,-0.0,32.45,19.222685,1.7431898755796487,167.08551655830723,10.026554742283114,0.03162277660168379,0.08957254677565571,0.45982796349656285
21181172,1975,1,215258.0,252300,1.28,0.16,9.91,-0.03,-0.01,-0.0,32.45,19.262685,-1.024898139315249,69.77648163764574,9.993602953890054,0.03162277660168379,-0.03600367677156457,0.1892921765557979
21221172,1963,1,215215.0,252338,1.29,0.15,9.92,-0.03,-0.01,-0.0,32.45,19.302685,-6.914682714517839,-9.768438516636618,10.00464891937743,0.03162277660168379,-0.3031978196170163,-0.03185632819121443
21261184,1982,1,215235.0,252394,1.28,0.12,9.92,-0.03,-0.01,-0.0,32.45,19.342697,12.537935037161002,-47.89610542355591,10.002959562049623,0.03162277660168379,0.5792836124107866,-0.1378577737845118
21301172,1987,1,215268.0,252492,1.27,0.15,9.9,-0.03,-0.01,-0.0,32.45,19.382685,13.804249034347682,-46.239615769538865,9.982254254425701,0.03162277660168379,0.6367308210024276,-0.13325244877564582
21341172,1975,1,215277.0,252657,1.3,0.15,9.91,-0.03,-0.01,-0.0,32.45,19.422685,14.962818588316042,-25.323411189205046,9.996029211641991,0.03162277660168379,0.6892901285538019,-0.07510181691943403
21381172,1988,1,215370.0,252795,1.29,0.13,9.94,-0.03,-0.01,-0.0,32.45,19.462685,11.234876760770051,-9.220563810254925,10.02420071626661,0.03162277660168379,0.5201694742292596,-0.030333142651898792
21421858,1946,1,215323.0,252895,1.27,0.13,9.94,-0.03,-0.01,-0.0,32.39,19.503371,-8.257808955720215,-12.466665743952355,10.021646571297552,0.03162277660168379,-0.36412966868026636,-0.03935786211231458
21462185,1963,1,215381.0,252987,1.29,0.15,9.91,-0.03,-0.01,-0.0,32.39,19.543698,-11.45450246018684,-35.40328747933342,9.994733613258534,0.03162277660168379,-0.5091498761190424,-0.10312559977411762
21502171,1931,1,215391.0,253095,1.29,0.13,9.93,-0.03,-0.01,-0.0,32.39,19.583684,-25.095411071338894,-67.52831130080466,10.014284797228408,0.03162277660168379,-1.1279791112892517,-0.1924386692863012
21542172,1941,1,215329.0,253187,1.29,0.13,9.91,-0.03,-0.01,-0.0,32.39,19.623685,-25.356446746922803,-95.04241679343838,9.994453461795697,0.03162277660168379,-1.139821174899418,-0.268932595954979
21582172,1951,1,215371.0,253391,1.29,0.13,9.93,-0.03,-0.01,-0.0,32.39,19.663685,-10.594689252065972,-108.29908911357268,10.014284797228408,0.03162277660168379,-0.47014385642210793,-0.30578841598512807
21622172,1949,1,215413.0,253632,1.28,0.13,9.9,-0.03,-0.01,-0.0,32.39,19.703685,-10.189509753864701,-105.39113950868818,9.983250973505575,0.03162277660168379,-0.45176260879953,-0.2977038179271683
21662172,1962,1,215427.0,253844,1.28,0.15,9.9,-0.03,-0.01,-0.0,32.39,19.743685,-1.783442885739452,-90.0437437696344,9.983531439325466,0.03162277660168379,-0.07041558280019278,-0.25503542863380513
21702172,1952,1,215492.0,253997,1.29,0.15,9.92,-0.03,-0.01,-0.0,32.39,19.783685,-5.997853835535822,-65.9147624748615,10.00464891937743,0.03162277660168379,-0.2616052446547767,-0.18795272713560793
21742172,1955,1,215568.0,254205,1.29,0.14,9.9,-0.03,-0.01,-0.0,32.39,19.823685,-6.123006313859713,-32.652267123502334,9.984673254543686,0.03162277660168379,-0.26728287322399913,-0.09547729191183502
21782172,1962,1,215588.0,254367,1.28,0.14,9.92,-0.03,-0.01,-0.0,32.39,19.863685,1.2634079486449366,11.914572741069675,10.003219481746864,0.03162277660168379,0.0678069084771361,0.02842615758856707
21822171,1946,1,215678.0,254515,1.28,0.14,9.92,-0.03,-0.01,-0.0,32.39,19.903684,-12.051249251697486,64.44314657528659,10.003219481746864,0.03162277660168379,-0.5362217062373751,0.17446459143700077
21862172,1952,1,215743.0,254699,1.29,0.15,9.9,-0.03,-0.01,-0.0,32.39,19.943685,-10.398902103257749,110.40382257607506,9.984818476066554,0.03162277660168379,-0.4612618372687726,0.3022431441720125
21902172,1955,1,215790.0,254943,1.28,0.14,9.91,-0.03,-0.01,-0.0,32.39,19.983685,-3.222648078035197,127.44966611865037,9.993302757347042,0.03162277660168379,-0.1357061198010232,0.3496335093176503
21942172,1957,1,215812.0,254746,1.26,0.11,9.93,-0.03,-0.01,-0.0,32.39,20.023685,-4.5533975262692366,98.3442373774402,10.01022477270116,0.03162277660168379,-0.19607648710783115,0.2687154314107882
21982171,1964,1,215712.0,254468,1.29,0.13,9.93,-0.03,-0.01,-0.0,32.39,20.063684,3.3871991006672864,24.814480219996113,10.014284797228408,0.03162277660168379,0.16415416009590134,0.06429011024332124
22022172,1965,1,215628.0,254343,1.29,0.16,9.94,-0.03,-0.01,-0.0,32.39,20.103685,4.363858947082144,-68.94410847571946,10.024634656684501,0.03162277660168379,0.20846100819575944,-0.19637482797060402
22062172,1950,1,215610.0,254345,1.3,0.13,9.94,-0.03,-0.01,-0.0,32.39,20.143685,-12.233497229794041,-147.33306227768736,10.025492506605348,0.03162277660168379,-0.5444895115655777,-0.4143095482313616
22102169,1933,1,215568.0,254376,1.31,0.15,9.91,-0.03,-0.01,-0.0,32.39,20.183682,-28.849766613725738,-182.55556151455949,9.997334644794082,0.03162277660168379,-1.2982980420203674,-0.512234130022116
22142172,1929,1,215575.0,254461,1.28,0.13,9.89,-0.03,-0.01,-0.0,32.39,20.223685,-32.97003723670838,-169.85646224567276,9.973334447415269,0.03162277660168379,-1.4852169629660072,-0.47692845859141836
22182172,1917,1,215657.0,254558,1.28,0.16,9.89,-0.03,-0.01,-0.0,32.39,20.263685,-47.75486999390197,-129.06399479341906,9.973770600931225,0.03162277660168379,-2.155941106647581,-0.36351841097920246
22222172,1922,1,215722.0,254671,1.27,0.14,9.92,-0.03,-0.01,-0.0,32.39,20.303685,-39.110141079124084,-90.8448492910509,10.001944810885531,0.03162277660168379,-1.7637670121585787,-0.25726263921949954
22260172,2001,1,215742.0,254714,1.28,0.13,9.91,-0.03,-0.01,-0.0,32.39,20.341685,33.431306787911794,-75.89009686011411,9.993167665960579,0.03162277660168379,1.5271258441279305,-0.2156858655858237
22300172,2032,1,215746.0,254748,1.29,0.12,9.93,-0.03,-0.01,-0.0,32.39,20.381685,71.1127247159283,-80.95848421613724,10.014159974755746,0.03162277660168379,3.2365693791032806,-0.22977685069322196
22340172,2032,1,215757.0,254853,1.3,0.16,9.92,-0.03,-0.01,-0.0,32.39,20.421685,62.38932698904977,-82.00695102005817,10.006098140634041,0.03162277660168379,2.840826419649947,-0.23269176801936012
22380172,2054,1,215775.0,254857,1.28,0.15,9.93,-0.03,-0.01,-0.0,32.39,20.461685,92.60531559604802,-52.62426656832123,10.01328118051221,0.03162277660168379,4.2115956002523,-0.15100287174098365
22420172,2053,1,215865.0,255097,1.29,0.14,9.92,-0.03,-0.01,-0.0,32.39,20.501685,82.4863917005559,15.667904131264429,10.004503985705638,0.03162277660168379,3.7525436328581656,0.038861061830744614
22460858,1978,1,215994.0,255203,1.28,0.13,9.94,-0.03,-0.01,-0.0,32.25,20.542371,14.62288877987176,106.51752883206998,10.022918736575688,0.03162277660168379,0.6738689781475047,0.2914385818086656
22501172,1968,1,216078.0,255363,1.28,0.13,9.93,-0.03,-0.01,-0.0,32.25,20.582685,-1.269050894983437,190.34576291987798,10.013001547987496,0.03162277660168379,-0.04707983506583844,0.5244954330588109
22541172,1965,1,216163.0,255488,1.3,0.16,9.93,-0.03,-0.01,-0.0,32.25,20.622685,-2.141058057448078,244.98984008817243,10.016012180503775,0.03162277660168379,-0.08663904191880217,0.6764153285796073
22581172,1946,1,216138.0,255655,1.28,0.14,9.92,-0.03,-0.01,-0.0,32.25,20.662685,-20.77793802249929,268.94875727289525,10.003219481746864,0.03162277660168379,-0.9321139661700251,0.7430252227184438
22621171,1962,1,216198.0,255767,1.27,0.14,9.92,-0.03,-0.01,-0.0,32.25,20.702684,-8.578311108781437,277.3717510797274,10.001944810885531,0.03162277660168379,-0.37866947008961915,0.7664425884315703
22661172,1971,1,216184.0,255833,1.29,0.13,9.92,-0.03,-0.01,-0.0,32.25,20.742685,5.505808517024504,285.2583842990783,10.004369045572039,0.03162277660168379,0.2602663386993774,0.7883687798283904
22701172,1968,1,216231.0,255888,1.29,0.15,9.91,-0.03,-0.01,-0.0,32.25,20.782685,-3.8897586589339745,292.2401040894762,9.994733613258534,0.03162277660168379,-0.16597005179555616,0.8077791568733913
22741172,1954,1,216202.0,255987,1.29,0.14,9.94,-0.03,-0.01,-0.0,32.25,20.822685,-11.920857247277858,281.2894519271636,10.024335389441037,0.03162277660168379,-0.5303063829500876,0.7773344679227584
22781172,1959,1,216188.0,255986,1.29,0.14,9.92,-0.03,-0.01,-0.0,32.25,20.862685,-12.961053651326006,232.3439619882648,10.004503985705638,0.03162277660168379,-0.5774956108448965,0.6412576211159082
22821172,1949,1,216120.0,255656,1.29,0.13,9.92,-0.03,-0.01,-0.0,32.25,20.902685,-17.30075748684395,140.07110438172896,10.004369045572039,0.03162277660168379,-0.774369270947219,0.38472326984821376
22861171,1959,1,215970.0,255342,1.28,0.13,9.92,-0.03,-0.01,-0.0,32.25,20.942684,-13.79388913753423,21.35278668431274,10.003084524285496,0.03162277660168379,-0.6152777675651239,0.054666009196718296
22901210,1955,1,215845.0,255176,1.3,0.14,9.94,-0.03,-0.01,-0.0,32.25,20.982723,-10.264230545499709,-94.24105179049626,10.025627162427295,0.03162277660168379,-0.45515236909020457,-0.26670466396619197
22941172,1953,1,215780.0,255134,1.3,0.14,9.93,-0.03,-0.01,-0.0,32.25,21.022685,-21.549326896851387,-183.68774335822496,10.015712655622664,0.03162277660168379,-0.9671085549281271,-0.5153817894998389
22981172,1952,1,215731.0,255150,1.31,0.16,9.92,-0.03,-0.01,-0.0,32.25,21.062685,-12.343417682011781,-243.42007170032537,10.007402260327103,0.03162277660168379,-0.5494761287561553,-0.68144789494431
23021179,1966,1,215753.0,255102,1.29,0.15,9.94,-0.03,-0.01,-0.0,32.25,21.102692,-8.301485414922357,-285.23233990699845,10.024480036390914,0.03162277660168379,-0.36611108140089027,-0.7976931633543128
23061172,1941,1,215657.0,255196,1.3,0.17,9.92,-0.03,-0.01,-0.0,32.25,21.142685,-26.06131650678711,-319.86781033564887,10.006263038717302,0.03162277660168379,-1.17179807811207,-0.8939857044952073
23101210,1952,1,215671.0,255171,1.28,0.13,9.9,-0.03,-0.01,-0.0,32.25,21.182723,-17.43985982544284,-343.8924814205992,9.983250973505575,0.03162277660168379,-0.7806797445571049,-0.960778405740876
23141169,1962,1,215653.0,255270,1.29,0.15,9.91,-0.03,-0.01,-0.0,32.25,21.222682,-11.795485574430197,-341.7155784380833,9.994733613258534,0.03162277660168379,-0.5246188104699889,-0.9547262425275751
23181172,1951,1,215704.0,255412,1.3,0.16,9.93,-0.03,-0.01,-0.0,32.25,21.262685,-11.581389444759346,-300.40636046277865,10.016012180503775,0.03162277660168379,-0.5149061917615255,-0.839879539937539
23221172,1982,1,215799.0,255594,1.3,0.15,9.94,-0.03,-0.01,-0.0,32.25,21.302685,2.6008564332743482,-223.7496968104453,10.025771790740102,0.03162277660168379,0.12848118219422056,-0.6267608830487306
23261172,1968,1,215940.0,255830,1.29,0.15,9.93,-0.03,-0.01,-0.0,32.25,21.342685,8.040471990659961,-133.240682504674,10.014564393921486,0.03162277660168379,0.3752530968044318,-0.3751303183184485
23301172,1987,1,215970.0,255997,1.29,0.12,9.92,-0.03,-0.01,-0.0,32.25,21.382685,8.483739477514577,-55.26037070703291,10.004244099381022,0.03162277660168379,0.39536223232358664,-0.1583316928335536
23341172,1968,1,216049.0,256208,1.26,0.16,9.92,-0.03,-0.01,-0.0,32.25,21.422685,3.681319023099696,-4.805869494610984,10.000979951984705,0.03162277660168379,0.17749711340169272,-0.01805953617990547
23381172,1971,1,216076.0,256285,1.29,0.14,9.92,-0.03,-0.01,-0.0,32.25,21.462685,-0.8657697717330668,22.22783416704295,10.004503985705638,0.03162277660168379,-0.02878470853331544,0.05709879110174866
23421172,1951,1,216116.0,256413,1.27,0.14,9.92,-0.03,-0.01,-0.0,32.25,21.502685,-20.657058097708944,43.714467578007415,10.001944810885531,0.03162277660168379,-0.9266301649411036,0.11683531282640054
23461859,1936,1,216136.0,256550,1.31,0.14,9.89,-0.03,-0.01,-0.0,32.19,21.543372,-29.41481927573414,77.5316603386172,9.977364381438617,0.03162277660168379,-1.323932046076056,0.21085290187225147
23500172,1984,1,216234.0,256702,1.28,0.13,9.91,-0.03,-0.01,-0.0,32.19,21.581685,8.138544195643249,128.4749147250007,9.993167665960579,0.03162277660168379,0.3797022100806286,0.3524838760770684
23540172,1974,1,216253.0,256826,1.28,0.14,9.9,-0.03,-0.01,-0.0,32.19,21.621685,10.517844425044121,183.65011611856949,9.983386199080952,0.03162277660168379,0.4876408073670812,0.5058803879302028
23580172,1968,1,216306.0,256887,1.28,0.14,9.93,-0.03,-0.01,-0.0,32.19,21.661685,-7.463618470957359,219.07333282042524,10.013136371786814,0.03162277660168379,-0.32810066912642,0.6043629986582124
23620209,1984,1,216331.0,256888,1.25,0.16,9.92,-0.03,-0.01,-0.0,32.19,21.701722,19.3397808505001,214.07877625673308,9.999724996218646,0.03162277660168379,0.8878540429005218,0.5904772758013339
23660172,2009,1,216286.0,256699,1.29,0.14,9.92,-0.03,-0.01,-0.0,32.19,21.741685,35.446849653316846,165.28639019756892,10.004503985705638,0.03162277660168379,1.6185623375028422,0.45482608400813657
23700172,1990,1,216211.0,256457,1.27,0.13,9.91,-0.03,-0.01,-0.0,32.19,21.781685,24.308942918514372,90.84465779013138,9.991891712783922,0.03162277660168379,1.113283510221495,0.24786531541660833
23741172,1983,1,216115.0,256330,1.28,0.15,9.92,-0.03,-0.01,-0.0,32.19,21.822685,10.7328776277028,20.840500195241,10.003364434029184,0.03162277660168379,0.49739593703847873,0.05324176499808718
23781172,1967,1,216081.0,256374,1.28,0.15,9.94,-0.03,-0.01,-0.0,32.19,21.862685,1.0108402704973132,-20.407401868790128,10.02319809242539,0.03162277660168379,0.056349001415942956,-0.06143446885467383
23821172,1978,1,216130.0,256310,1.28,0.14,9.94,-0.03,-0.01,-0.0,32.19,21.902685,7.070783108169439,-27.592760800948582,10.023053426975235,0.03162277660168379,0.3312624912949074,-0.08141099759887781
23861172,1984,1,216116.0,256266,1.28,0.13,9.93,-0.03,-0.01,-0.0,32.19,21.942685,17.194167538218622,-13.936086745820738,10.013001547987496,0.03162277660168379,0.7905168139182341,-0.04344310422176379
23901171,1978,1,216144.0,256318,1.28,0.14,9.9,-0.03,-0.01,-0.0,32.19,21.982684,9.507450194710982,1.07060936888498,9.983386199080952,0.03162277660168379,0.44180357565465195,-0.0017219182488176202
23941169,1970,1,216126.0,256312,1.29,0.13,9.95,-0.03,-0.01,-0.0,32.19,22.022682,1.5156488600264535,5.09636982430826,10.034116802190415,0.03162277660168379,0.07924999153842475,0.009470385464099994
23981172,1977,1,216126.0,256306,1.28,0.14,9.92,-0.03,-0.01,-0.0,32.19,22.062685,11.273185919020728,-1.7641647803687552,10.003219481746864,0.03162277660168379,0.521907395637288,-0.009603076004548895
24021179,1978,1,216135.0,256321,1.26,0.12,9.94,-0.03,-0.01,-0.0,32.19,22.102692,8.755864507766148,-11.178424843732888,10.02025947767821,0.03162277660168379,0.40770737216299413,-0.03577633172313431
24061172,1964,1,216116.0,256403,1.3,0.15,9.92,-0.03,-0.01,-0.0,32.19,22.142685,-1.2077738123403374,-14.799461257449455,10.005943233898542,0.03162277660168379,-0.04429995791348441,-0.04584343326745325
24101172,1957,1,216109.0,256503,1.28,0.12,9.92,-0.03,-0.01,-0.0,32.19,22.182685,-9.670013359351682,-10.12433495648215,10.002959562049623,0.03162277660168379,-0.4281952962652792,-0.03284578126205753
24141172,1946,1,216156.0,256561,1.27,0.14,9.9,-0.03,-0.01,-0.0,32.19,22.222685,-22.31918233939787,-0.844680224984649,9.982108995598075,0.03162277660168379,-1.0020335784938723,-0.007046751425094033
24181172,1953,1,216113.0,256609,1.28,0.15,9.93,-0.03,-0.01,-0.0,32.19,22.262685,-8.593990663756776,7.333935864816027,10.01328118051221,0.03162277660168379,-0.37938078392433433,0.015691202370713555
24221172,1966,1,216138.0,256753,1.29,0.15,9.92,-0.03,-0.01,-0.0,32.19,22.302685,-5.901611472360527,11.841416581113132,10.00464891937743,0.03162277660168379,-0.2572391434152998,0.02822277093161847
24261172,1941,1,216131.0,256778,1.29,0.12,9.91,-0.03,-0.01,-0.0,32.19,22.342685,-18.10623393775494,15.766951297294705,9.994328391642933,0.03162277660168379,-0.8109102661458347,0.03913642991992668
24301172,1959,1,216141.0,256858,1.28,0.14,9.92,-0.03,-0.01,-0.0,32.19,22.382685,-11.832461391945161,26.09174162252381,10.003219481746864,0.03162277660168379,-0.5262962439551655,0.0678411157480375
24341172,1952,1,216164.0,256894,1.27,0.15,9.93,-0.03,-0.01,-0.0,32.19,22.422685,-10.562838305293019,48.339145760969004,10.012007790648187,0.03162277660168379,-0.4686989162357306,0.12969271042155076
24381172,1975,1,216159.0,256986,1.28,0.13,9.91,-0.03,-0.01,-0.0,32.19,22.462685,9.551690271156637,80.47741098282195,9.993167665960579,0.03162277660168379,0.44381055726058066,0.2190425932951595
24421172,1967,1,216161.0,257065,1.29,0.14,9.92,-0.03,-0.01,-0.0,32.19,22.502685,-0.8756981500875038,110.47297981366307,10.004503985705638,0.03162277660168379,-0.02923511627071013,0.3024354131397273
24461858,1932,1,216248.0,257079,1.3,0.14,9.94,-0.03,-0.01,-0.0,32.33,22.543371,-30.548679076200084,120.99592982754342,10.025627162427295,0.03162277660168379,-1.3753703786031828,0.33169101684872054
24500172,1979,1,216186.0,256882,1.29,0.15,9.91,-0.03,-0.01,-0.0,32.33,22.581685,10.559362618286967,99.71736267325134,9.994733613258534,0.03162277660168379,0.48952430886265713,0.2725329549611288
24540230,1991,1,216068.0,256665,1.3,0.13,9.93,-0.03,-0.01,-0.0,32.33,22.621743,24.98796403028482,47.8079372619163,10.01557786650376,0.03162277660168379,1.1440877716706044,0.1282158597936721
24580169,1984,1,216013.0,256507,1.3,0.14,9.91,-0.03,-0.01,-0.0,32.33,22.661682,18.9970192082551,-20.298629319791807,9.99588415299017,0.03162277660168379,0.872304424399101,-0.061132062534800184
24620171,2007,1,215973.0,256514,1.29,0.14,9.94,-0.03,-0.01,-0.0,32.33,22.701684,35.847288913519115,-85.26017399884958,10.024335389441037,0.03162277660168379,1.6367285409565113,-0.24173628520503246
24660172,1970,1,215902.0,256407,1.3,0.14,9.94,-0.03,-0.01,-0.0,32.33,22.741685,5.911155230667912,-132.3581015436412,10.025627162427295,0.03162277660168379,0.2786551721659131,-0.3726765920531883
24700171,1969,1,215820.0,256443,1.28,0.16,9.91,-0.03,-0.01,-0.0,32.33,22.781684,-3.853164186626425,-156.25140408692823,9.993602953890054,0.03162277660168379,-0.16430991829894842,-0.4391040662484899
24740195,1970,1,215844.0,256487,1.31,0.15,9.92,-0.03,-0.01,-0.0,32.33,22.821708,2.5753508473444766,-159.8045130072601,10.007247373778666,0.03162277660168379,0.12732410368255553,-0.4489823177246448
24780172,1959,1,215860.0,256533,1.29,0.13,9.91,-0.03,-0.01,-0.0,32.33,22.861685,-14.190940023922405,-149.20142634415373,9.994453461795697,0.03162277660168379,-0.633290255101795,-0.41950392040271695
24820172,1965,1,215830.0,256558,1.29,0.15,9.91,-0.03,-0.01,-0.0,32.33,22.901685,-5.878892190701863,-129.0544891127157,9.994733613258534,0.03162277660168379,-0.2562084675202239,-0.36349198355844353
24860172,1968,1,215840.0,256589,1.3,0.13,9.92,-0.03,-0.01,-0.0,32.33,22.941685,-7.953173194539475,-101.11761498579888,10.00566339629712,0.03162277660168379,-0.35030965709080003,-0.2858226876626133
24900172,1967,1,215900.0,256637,1.31,0.15,9.93,-0.03,-0.01,-0.0,32.33,22.981685,-6.060720872349771,-67.27664666262794,10.017160276245958,0.03162277660168379,-0.26445725117560237,-0.19173899847988726
24940172,1987,1,215873.0,256701,1.3,0.13,9.93,-0.03,-0.01,-0.0,32.33,23.021685,7.395192528938519,-33.27126946943819,10.01557786650376,0.03162277660168379,0.34597954860092994,-0.09719822447387792
24980169,1974,1,215893.0,256748,1.3,0.14,9.93,-0.03,-0.01,-0.0,32.33,23.061682,-3.3510713162958887,-8.305084210460926,10.015712655622664,0.03162277660168379,-0.14153212865251377,-0.027787952535067217
25020171,1979,1,215919.0,256773,1.3,0.12,9.93,-0.03,-0.01,-0.0,32.33,23.101684,-1.8272848790014624,0.9886890711148522,10.015453060146605,0.03162277660168379,-0.07240450508770718,-0.0019496707102589744
25060172,1984,1,215910.0,256790,1.28,0.15,9.92,-0.03,-0.01,-0.0,32.33,23.141685,-1.0143457120609345,-1.8967710643325106,10.003364434029184,0.03162277660168379,-0.03552495862505943,-0.009971744190546986
25100172,1980,1,215849.0,256820,1.29,0.13,9.93,-0.03,-0.01,-0.0,32.33,23.181685,-1.088880957295112,-1.8329636231240856,10.014284797228408,0.03162277660168379,-0.038906301475181676,-0.009794348573232805
25140172,1998,1,215864.0,256877,1.31,0.15,9.94,-0.03,-0.01,-0.0,32.33,23.221685,5.827441119537153,19.039663269836197,10.027073351681436,0.03162277660168379,0.27485742372841904,0.048235129846853846
25180171,1985,1,215915.0,256960,1.3,0.13,9.9,-0.03,-0.01,-0.0,32.33,23.261684,0.24968259157733327,66.64971548271451,9.985834967592846,0.03162277660168379,0.021818557900992828,0.18059923100358113
25220169,2000,1,215944.0,257076,1.29,0.15,9.91,-0.03,-0.01,-0.0,32.33,23.301682,4.309256472580082,126.06124845830622,9.994733613258534,0.03162277660168379,0.20598392924906175,0.3457734703741965
25260171,1989,1,215979.0,257106,1.3,0.13,9.92,-0.03,-0.01,-0.0,32.33,23.341684,-2.8461753917062387,167.04902960311728,10.00566339629712,0.03162277660168379,-0.11862717651472643,0.4597265235106105
25300169,1987,1,215970.0,257146,1.3,0.15,9.9,-0.03,-0.01,-0.0,32.33,23.381682,-11.54576490530791,162.26902243918616,9.98611536083977,0.03162277660168379,-0.5132900599384592,0.44643728473919586
25340172,1978,1,215938.0,256764,1.3,0.13,9.93,-0.03,-0.01,-0.0,32.33,23.421685,-19.000295639062156,105.89396374530881,10.01557786650376,0.03162277660168379,-0.8514699923771648,0.28970496404549223
25380169,1966,1,215740.0,256374,1.29,0.14,9.95,-0.03,-0.01,-0.0,32.33,23.461682,-39.91407409043824,18.94668515448669,10.034251342277608,0.03162277660168379,-1.800237988154481,0.04797663475824407
25420172,1968,1,215683.0,256163,1.28,0.15,9.94,-0.03,-0.01,-0.0,32.33,23.501685,-29.027379320509983,-63.171455254005075,10.02319809242539,0.03162277660168379,-1.3063555650658591,-0.18032586310988022
25460172,1977,1,215639.0,256137,1.29,0.16,9.93,-0.03,-0.01,-0.0,32.33,23.541685,-39.876041641903164,-111.7813809035113,10.014719167305692,0.03162277660168379,-1.7985126198737074,-0.3154697837072159
25500858,1943,1,215629.0,256079,1.3,0.15,9.92,-0.03,-0.01,-0.0,32.33,23.582371,-53.379163500162164,-119.25893235595258,10.005943233898542,0.03162277660168379,-2.411091063887697,-0.336258657712858
25539169,2029,1,215602.0,256165,1.3,0.13,9.93,-0.03,-0.01,-0.0,32.33,23.620682,4.5303472267474625,-97.95717701523006,10.01557786650376,0.03162277660168379,0.21601386392604877,-0.277036128694657
25579172,2042,1,215643.0,256203,1.27,0.12,9.9,-0.03,-0.01,-0.0,32.33,23.660685,40.714363873319236,-67.5433304792649,9.981848526199945,0.03162277660168379,1.8575267561448185,-0.19248042517533306
25619169,2054,1,215669.0,256257,1.29,0.15,9.93,-0.03,-0.01,-0.0,32.33,23.700682,29.003257025662002,-41.6249999559011,10.014564393921486,0.03162277660168379,1.326244310076128,-0.12042302629098488
25659172,2027,1,215617.0,256325,1.29,0.17,9.94,-0.03,-0.01,-0.0,32.33,23.740685,15.899737635482271,-22.4344164842832,10.024799249860317,0.03162277660168379,0.7317941078635285,-0.06706991673050529
25699172,2043,1,215665.0,256385,1.28,0.15,9.94,-0.03,-0.01,-0.0,32.33,23.780685,20.656621138571197,-4.857745918568278,10.02319809242539,0.03162277660168379,0.9475934115553442,-0.018203761525377265
25739172,2054,1,215674.0,256472,1.28,0.16,9.93,-0.03,-0.01,-0.0,32.33,23.820685,34.130256059246186,15.70603031281706,10.013435973730497,0.03162277660168379,1.5588341602916371,0.03896705914679854
25779172,2037,1,215680.0,256528,1.3,0.15,9.92,-0.03,-0.01,-0.0,32.33,23.860685,15.276804248305714,38.60847476304604,10.005943233898542,0.03162277660168379,0.703534304756769,0.10263977810102051
25819172,2031,1,215665.0,256624,1.3,0.13,9.93,-0.03,-0.01,-0.0,32.33,23.900685,6.671160624245725,59.23186539867521,10.01557786650376,0.03162277660168379,0.3131333414609181,0.15997633702944622
25859172,2043,1,215711.0,256690,1.3,0.15,9.9,-0.03,-0.01,-0.0,32.33,23.940685,19.73519160140441,74.0460254602485,9.98611536083977,0.03162277660168379,0.9057921245588172,0.20116223979162867
25899172,2047,1,215667.0,256721,1.31,0.13,9.9,-0.03,-0.01,-0.0,32.33,23.980685,20.559795253766872,84.87019501734413,9.987141733248809,0.03162277660168379,0.943200838454374,0.2312552854322177
25939172,2035,1,215702.0,256786,1.3,0.13,9.91,-0.03,-0.01,-0.0,32.33,24.020685,11.019056854574645,98.61252320540287,9.995749096490968,0.03162277660168379,0.510378655208874,0.26946131197215756
25979172,2011,1,215706.0,256907,1.3,0.15,9.92,-0.03,-0.01,-0.0,32.33,24.060685,-17.16753694011299,121.69823133458662,10.005943233898542,0.03162277660168379,-0.768325628885496,0.3336435353484932
26019172,2011,1,215698.0,257007,1.28,0.15,9.93,-0.03,-0.01,-0.0,32.33,24.100685,-12.724260805585002,152.31244290402788,10.01328118051221,0.03162277660168379,-0.5667533399448567,0.4187562879851069
26059172,2038,1,215730.0,257115,1.3,0.14,9.92,-0.03,-0.01,-0.0,32.33,24.140685,10.382713151804388,176.48665215945692,10.005798318974854,0.03162277660168379,0.4815104838783545,0.48596473096186066
26099169,2025,1,215699.0,257208,1.3,0.16,9.92,-0.03,-0.01,-0.0,32.33,24.180682,-0.1323584191546594,173.15302711931622,10.006098140634041,0.03162277660168379,0.004487003734458032,0.4766966822720836
26139172,2032,1,215719.0,257005,1.28,0.15,9.89,-0.03,-0.01,-0.0,32.33,24.220685,9.024299956713854,127.24268531887881,9.973615192095593,0.03162277660168379,0.4198851315997133,0.34905806723672245
26179187,2034,1,215561.0,256504,1.29,0.14,9.94,-0.03,-0.01,-0.0,32.33,24.2607,6.165948781580125,42.11345651021061,10.024335389441037,0.03162277660168379,0.29021405748154383,0.11238422779117821
26219171,2000,1,215424.0,256289,1.3,0.13,9.91,-0.03,-0.01,-0.0,32.33,24.300684,-17.05435281935108,-59.24226382295269,9.995749096490968,0.03162277660168379,-0.7631909531185723,-0.16940203782780494
26259169,2030,1,215345.0,256245,1.29,0.15,9.91,-0.03,-0.01,-0.0,32.33,24.340682,2.264839484700358,-146.52605533909073,9.994733613258534,0.03162277660168379,0.11323754137690199,-0.41206593069494374
26299172,2020,1,215324.0,256186,1.29,0.14,9.94,-0.03,-0.01,-0.0,32.33,24.380685,6.364988072673739,-198.83100483196117,10.024335389441037,0.03162277660168379,0.2992436123145396,-0.5574826505656918
26339172,2011,1,215283.0,256180,1.31,0.15,9.9,-0.03,-0.01,-0.0,32.33,24.420685,-12.11687672801371,-213.48800269569116,9.987422089808762,0.03162277660168379,-0.5391989420016934,-0.5982316154946551
26379175,2001,1,215251.0,256182,1.28,0.12,9.93,-0.03,-0.01,-0.0,32.33,24.460688,-11.176080759763185,-202.57904713476339,10.0128767095176,0.03162277660168379,-0.4965190834908226,-0.5679028502388526
26419172,2008,1,215311.0,256210,1.29,0.14,9.92,-0.03,-0.01,-0.0,32.33,24.500685,-8.486437694612247,-182.1559222405034,10.004503985705638,0.03162277660168379,-0.37450156923759564,-0.5111230643786498
26459171,2015,1,215308.0,256151,1.28,0.15,9.91,-0.03,-0.01,-0.0,32.33,24.540684,5.08722266427817,-162.44053370023073,9.993447853468792,0.03162277660168379,0.24127690254874495,-0.4563109068237597
26499172,2026,1,215285.0,256177,1.29,0.14,9.95,-0.03,-0.01,-0.0,32.33,24.580685,15.86799000371482,-144.40518452712084,10.034251342277608,0.03162277660168379,0.730353854633692,-0.40616954651454584
