timestamp_us,ecg,leads,ir,red,accX,accY,accZ,gyroX,gyroY,gyroZ,temp,time_sec,ecg_filtered,ppg_filtered,accel_magnitude,gyro_magnitude,ecg_norm,ppg_norm
1949956,1862.5,1,209018.875,237130,1.205,0.15,9.88,-0.03,-0.01,-0.0,32.55,0.030471,5.37754951865004,74.95440967769498,9.954342017431388,0.03162277660168379,0.15156114523124176,0.17459571125433443
1990174,1862.5,1,209018.875,237213,1.21,0.16,9.92,-0.03,-0.01,-0.0,32.55,0.070689,-8.944900514887197,86.31703356577736,9.99480364989728,0.03162277660168379,-0.23264052942036906,0.20156170070959045
2030167,1862.5,1,209018.875,237442,1.23,0.15,9.94,-0.03,-0.01,-0.0,32.55,0.110682,-22.97973426416144,94.9981780400421,10.016935659172418,0.03162277660168379,-0.6091268580374561,0.22216395355702537
2070169,1862.5,1,209018.875,237849,1.23,0.16,9.91,-0.03,-0.01,-0.0,32.55,0.150684,-37.878864153763075,101.08120503560407,9.987321963369359,0.03162277660168379,-1.0087980484436332,0.2366003058849774
2110167,1862.5,1,209018.875,237890,1.21,0.13,9.93,-0.03,-0.01,-0.0,32.55,0.190682,-51.41576749843362,109.68655757678376,10.004294078044687,0.03162277660168379,-1.371927326077073,0.25702268791309313
2150169,1862.5,1,209018.875,237873,1.24,0.15,9.92,-0.03,-0.01,-0.0,32.55,0.230684,-66.75185330232063,129.37235748855903,9.998324859695249,0.03162277660168379,-1.7833199184517867,0.3037413928590509
2190167,1862.5,1,209018.875,238104,1.24,0.14,9.92,-0.03,-0.01,-0.0,32.55,0.270682,-80.22947837729401,168.83699759033684,9.99817983434985,0.03162277660168379,-2.1448590484195154,0.39739960766242893
2230169,1862.5,1,209162.0,238517,1.22,0.17,9.93,-0.03,-0.01,-0.0,32.55,0.310684,-94.58899005492272,234.1663215603274,10.006108134534626,0.03162277660168379,-2.530054906726293,0.5524403692546072
2270169,1862.5,1,209231.0,238798,1.23,0.16,9.94,-0.03,-0.01,-0.0,32.55,0.350684,-109.69544521795746,326.8345862682828,10.017090395918368,0.03162277660168379,-2.9352876258558434,0.772362411343191
2310169,1862.5,1,209311.0,239101,1.24,0.14,9.95,-0.03,-0.01,-0.0,32.55,0.390684,-121.08179517185417,440.0041964888315,10.0279459511906,0.03162277660168379,-3.2407280156084894,1.0409386263020914
2350170,1862.5,1,209426.0,239266,1.205,0.16,9.92,-0.03,-0.01,-0.0,32.55,0.430685,-138.72870803549603,552.7294881426816,9.994199567749286,0.03162277660168379,-3.7141088588836526,1.3084603762093996
2390169,1904.0,1,209503.0,239423,1.23,0.17,9.91,-0.03,-0.01,-0.0,32.55,0.470684,-105.8523144551813,628.4862040644158,9.987487171456092,0.03162277660168379,-2.832195119231189,1.488247617504339
2430167,2034.0,1,209524.0,239558,1.25,0.15,9.91,-0.03,-0.01,-0.0,32.55,0.510682,6.174825735443941,626.8469986584963,9.989649643506022,0.03162277660168379,0.17294818843508292,1.4843574248757347
2470169,2121.0,1,209583.0,239542,1.23,0.16,9.91,-0.03,-0.01,-0.0,32.55,0.550684,84.33537143346165,527.2342219935466,9.987321963369359,0.03162277660168379,2.269615481987913,1.2479545383933996
2510170,2138.5,1,209338.0,238039,1.21,0.17,9.91,-0.03,-0.01,-0.0,32.55,0.590685,86.96314276416118,348.20286867615107,9.985043815627451,0.03162277660168379,2.340105806163749,0.8230740149096761
2550169,2138.5,1,209018.875,235973,1.22,0.18,9.89,-0.03,-0.01,-0.0,32.55,0.630684,75.9337109283786,142.9354871578968,9.966589185874975,0.03162277660168379,2.044239793586227,0.3359296633893498
2590170,2138.5,1,209018.875,235801,1.24,0.15,9.95,-0.03,-0.01,-0.0,32.55,0.670685,64.85862646667564,-29.74982139105459,10.0280905460611,0.03162277660168379,1.7471491430948158,-0.0738903091165372
2630169,2138.5,1,209018.875,236219,1.26,0.14,9.94,-0.03,-0.01,-0.0,32.55,0.710684,52.940504748372234,-136.6740091824182,10.02051894863734,0.03162277660168379,1.4274439032683985,-0.32764477189672964
2670167,2138.5,1,209018.875,236699,1.22,0.16,9.94,-0.03,-0.01,-0.0,32.55,0.750682,43.846045567291846,-180.57768144578162,10.01586741126299,0.03162277660168379,1.183483795937596,-0.43183778004008705
2710170,2138.5,1,209018.875,237195,1.22,0.16,9.92,-0.03,-0.01,-0.0,32.55,0.790685,33.38117101606179,-187.47364380458373,9.996019207664618,0.03162277660168379,0.9027621094812298,-0.4482034056282348
2750170,2138.5,1,209025.0,237865,1.25,0.15,9.92,-0.03,-0.01,-0.0,32.55,0.830685,24.852776526150073,-186.89610948963812,9.999569990754603,0.03162277660168379,0.6739867646595575,-0.4468327904956503
2790169,2138.5,1,209283.0,238142,1.23,0.16,9.92,-0.03,-0.01,-0.0,32.55,0.870684,16.845349335755625,-198.7652314006455,9.997244620394161,0.03162277660168379,0.4591864386680839,-0.47500081043962367
2830170,2138.5,1,209264.0,238134,1.22,0.15,9.9,-0.03,-0.01,-0.0,32.55,0.910685,9.04993587476112,-229.49550527475378,9.97601623896032,0.03162277660168379,0.2500734098704463,-0.5479304655446811
2870221,2138.5,1,209248.0,238294,1.23,0.16,9.95,-0.03,-0.01,-0.0,32.55,0.950736,3.1274392738639416,-274.58616261715326,10.027013513504407,0.03162277660168379,0.0912016311695223,-0.6549404486614337
2910170,2138.5,1,209321.0,238672,1.24,0.14,9.95,-0.03,-0.01,-0.0,32.55,0.990685,-2.9189479253548205,-324.06509503488866,10.0279459511906,0.03162277660168379,-0.07099352972071182,-0.7723647674610198
2950169,2138.5,1,209476.0,238966,1.24,0.16,9.93,-0.03,-0.01,-0.0,32.55,1.030684,-7.488579342082803,-366.32442761245,10.008401470764449,0.03162277660168379,-0.1935745154275201,-0.8726553982076647
2990856,2138.5,1,209611.0,239248,1.23,0.15,9.92,-0.03,-0.01,-0.0,32.55,1.071371,-10.940979782213445,-389.5867019464372,9.997089576471744,0.03162277660168379,-0.2861856278810619,-0.9278618584913234
3029170,2138.5,1,209728.0,239445,1.24,0.17,9.959999999999999,-0.03,-0.01,-0.0,32.55,1.109685,-14.378772678870785,-388.26230647450734,10.038331534672482,0.03162277660168379,-0.3784048909895652,-0.9247187786285721
3069195,2138.5,1,209728.0,239539,1.23,0.15,9.93,-0.03,-0.01,-0.0,32.55,1.14971,-15.297681208917531,-379.4967412030897,10.007012541213287,0.03162277660168379,-0.4030547375778879,-0.9039161767817994
3109169,2138.5,1,209782.0,239724,1.23,0.15,9.9,-0.03,-0.01,-0.0,32.55,1.189684,-16.76854279483381,-416.22276405894644,9.977244108470034,0.03162277660168379,-0.44251080013467886,-0.9910750544159742
3149167,2138.5,1,209924.0,240145,1.24,0.16,9.94,-0.03,-0.01,-0.0,32.55,1.229682,-16.364950595042757,-568.580822794542,10.018323212993279,0.03162277660168379,-0.431684384355747,-1.3526540211893536
3189170,2138.5,1,210036.0,240082,1.24,0.17,9.94,-0.03,-0.01,-0.0,32.55,1.269685,-14.291840892586524,-866.0373527364037,10.01848790985945,0.03162277660168379,-0.3760729339715507,-2.058583367158667
3229170,2138.5,1,209678.0,238390,1.22,0.17,9.94,-0.03,-0.01,-0.0,32.55,1.309685,-13.856534241997101,-1240.5951527237992,10.016032148510707,0.03162277660168379,-0.36439577372649345,-2.947490875171641
3269169,2138.5,1,209114.0,237711,1.24,0.17,9.94,-0.03,-0.01,-0.0,32.55,1.349684,-7.760489198190885,-1532.5813252520697,10.01848790985945,0.03162277660168379,-0.2008685343856161,-3.640437867612022
3309170,2127.0,1,209503.0,238757,1.24,0.15,9.93,-0.03,-0.01,-0.0,32.55,1.389685,-17.99180119157034,-1574.3524679492903,10.008246599679687,0.03162277660168379,-0.4753248733873225,-3.7395699170930103
3349170,2096.0,1,210075.0,240127,1.22,0.16,9.94,-0.03,-0.01,-0.0,32.55,1.429685,-41.1487623768657,-1292.5360706842887,10.01586741126299,0.03162277660168379,-1.0965135140458604,-3.0707580236590544
3389167,2087.0,1,210796.0,241656,1.24,0.17,9.959999999999999,-0.03,-0.01,-0.0,32.55,1.469682,-45.0658356986139,-748.8799594673064,10.038331534672482,0.03162277660168379,-1.2015895398951284,-1.7805432716123086
3429169,2079.0,1,211525.0,243150,1.25,0.18,9.92,-0.03,-0.01,-0.0,32.55,1.509684,-46.38120146373909,-96.05605100003389,10.000064999788751,0.03162277660168379,-1.2368744058612962,-0.23124948126416653
3469167,2095.0,1,212168.0,244599,1.24,0.15,9.95,-0.03,-0.01,-0.0,32.55,1.549682,-20.314920055520247,506.6467603405989,10.0280905460611,0.03162277660168379,-0.5376428536109804,1.1990959931038603
3509170,2138.5,1,212893.0,245760,1.24,0.15,9.93,-0.03,-0.01,-0.0,32.55,1.589685,29.42515966296912,957.4739369948248,10.008246599679687,0.03162277660168379,0.7966415656329356,2.2690073983868864
3549167,2138.5,1,213334.0,246484,1.27,0.15,9.9,-0.03,-0.01,-0.0,32.55,1.629682,41.63687166903598,1229.8638985292828,9.982254254425701,0.03162277660168379,1.1242224049521803,2.91544829996067
3589170,2138.5,1,213469.0,246967,1.25,0.17,9.91,-0.03,-0.01,-0.0,32.55,1.669685,50.101905524320784,1354.51032001635,9.989969969924834,0.03162277660168379,1.3512980921123736,3.211261495976165
3629167,2138.5,1,213743.0,247515,1.29,0.16,9.95,-0.03,-0.01,0.0,32.55,1.709682,63.153186934952686,1389.4899144631304,10.034550313790847,0.03162277660168379,1.701400495163021,3.294275717364795
3669169,2138.5,1,213953.0,247928,1.26,0.15,9.9,-0.03,-0.01,0.0,32.55,1.749684,71.2915622668622,1394.0374996189025,9.980986925149237,0.03162277660168379,1.9197135229020865,3.3050681306810583
3709170,2138.5,1,214055.0,248352,1.27,0.16,9.92,-0.03,-0.01,-0.0,32.55,1.789685,90.60831046803901,1407.3687566176234,10.002244748055308,0.03162277660168379,2.437887926746225,3.3367061166949985
3749170,2138.5,1,214064.0,248548,1.27,0.14,9.91,-0.03,-0.01,-0.0,32.55,1.829685,90.64332924865555,1428.6042204689063,9.992026821421167,0.03162277660168379,2.438827310310184,3.387102512803099
3789170,2114.0,1,214074.0,248591,1.26,0.15,9.92,-0.03,-0.01,-0.0,32.55,1.869685,97.73101672122691,1405.203503560369,10.000824965971558,0.03162277660168379,2.6289554929879233,3.3315674980374608
3829169,2109.0,1,214132.0,248484,1.25,0.15,9.91,-0.03,-0.01,-0.0,32.55,1.909684,81.98059009716823,1251.1130106283151,9.989649643506022,0.03162277660168379,2.206448151627267,2.965877086343105
3869167,2000.0,1,214135.0,247972,1.27,0.15,9.94,-0.03,-0.01,-0.0,32.55,1.949682,13.259279433637797,903.3058713077298,10.021925962608185,0.03162277660168379,0.3629896246743027,2.1404547416662973
3909170,1985.0,1,213492.0,245951,1.26,0.15,9.91,-0.03,-0.01,-0.0,32.55,1.989685,-15.43949520456481,384.8455619542391,9.99090586483528,0.03162277660168379,-0.4068589173438594,0.9100351332465659
3949170,1923.0,1,212731.0,244545,1.24,0.15,9.9,-0.03,-0.01,-0.0,32.55,2.029685,-39.62444264618129,-181.6861072448698,9.97848184845771,0.03162277660168379,-1.0556234294680054,-0.4344683166753351
3989169,1882.0,1,212501.0,244108,1.25,0.14,9.94,-0.03,-0.01,-0.0,32.55,2.069684,-87.54973122893979,-634.0041314657514,10.019266440214073,0.03162277660168379,-2.341225829095303,-1.5079178290151296
4029854,1862.5,1,212423.0,244097,1.24,0.14,9.91,-0.03,-0.01,-0.0,32.55,2.110369,-78.98208899151896,-862.0968270830408,9.98825810639673,0.03162277660168379,-2.1113976580962666,-2.049231638696705
4068169,1884.0,1,212346.0,244198,1.24,0.14,9.93,-0.03,-0.01,-0.0,32.55,2.148684,-55.36258426858526,-862.6404730028607,10.008101718108184,0.03162277660168379,-1.4778012239845264,-2.0505218292623395
4108170,1862.5,1,212571.0,244780,1.25,0.15,9.93,-0.03,-0.01,-0.0,32.55,2.188685,-57.94641249731863,-721.2941311347422,10.009490496523787,0.03162277660168379,-1.5471127684595953,-1.715076072903862
4148169,1862.5,1,212775.0,245047,1.26,0.16,9.92,-0.03,-0.01,-0.0,32.55,2.228684,-50.36342348130604,-546.8011122648564,10.000979951984705,0.03162277660168379,-1.3436980543572705,-1.3009660087842236
4188170,1862.5,1,212811.0,245177,1.26,0.17,9.93,-0.03,-0.01,-0.0,32.55,2.268685,-37.009312671349626,-409.44257953345567,10.01106387952849,0.03162277660168379,-0.9854722113866525,-0.9749841949261306
4228170,1862.5,1,212824.0,245376,1.26,0.16,9.92,-0.03,-0.01,-0.0,32.55,2.308685,-28.04572172954281,-320.2967220083094,10.000979951984705,0.03162277660168379,-0.745022662414921,-0.7634215948013326
4268170,1862.5,1,212957.0,245719,1.27,0.16,9.94,-0.03,-0.01,0.0,32.55,2.348685,-17.607258819407317,-249.80700164857697,10.022080622305928,0.03162277660168379,-0.46500947183147234,-0.5961340849227245
4308169,1862.5,1,213126.0,246018,1.25,0.14,9.93,-0.03,-0.01,-0.0,32.55,2.388684,-9.600425631743274,-159.2860088840728,10.009345632957231,0.03162277660168379,-0.25022508004421906,-0.38130798837937746
4348170,1862.5,1,213156.0,246425,1.28,0.17,9.92,-0.03,-0.01,-0.0,32.55,2.428685,-1.4127771088824363,-24.80922612035743,10.003684321288832,0.03162277660168379,-0.030590292240737296,-0.06216519691670079
4388170,1862.5,1,213253.0,246606,1.26,0.14,9.94,-0.03,-0.01,-0.0,32.55,2.468685,5.443454809722922,146.9233708078525,10.02051894863734,0.03162277660168379,0.15332906364878288,0.3453937827259304
4428170,1862.5,1,213274.0,246644,1.26,0.17,9.959999999999999,-0.03,-0.01,-0.0,32.55,2.508685,10.259097717656093,306.9586018356923,10.040821679524042,0.03162277660168379,0.2825093411445834,0.7251923569700789
4468170,1862.5,1,213248.0,246719,1.26,0.16,9.95,-0.03,-0.01,0.0,32.55,2.548685,16.96082851572289,368.66152041179305,10.030737759507025,0.03162277660168379,0.4622841834133565,0.8716268661178123
4508222,1862.5,1,213155.0,246737,1.25,0.15,9.92,-0.03,-0.01,-0.0,32.55,2.588737,17.358676688482987,247.11868902684606,9.999569990754603,0.03162277660168379,0.47295651488413076,0.5831791676134156
4548169,1862.5,1,213066.0,245618,1.27,0.15,9.91,-0.03,-0.01,-0.0,32.55,2.628684,23.663901001713842,-74.82773403344471,9.992171936070756,0.03162277660168379,0.6420950166436,-0.18087004627518663
4588170,1874.0,1,212339.0,243701,1.27,0.16,9.91,-0.03,-0.01,-0.0,32.55,2.668685,32.40094567263912,-503.5400675487132,9.992327056296746,0.03162277660168379,0.876467431015109,-1.1982980962378589
4628161,1862.5,1,211566.0,242309,1.23,0.15,9.959999999999999,-0.03,-0.01,-0.0,32.55,2.708676,24.368783643190955,-867.2905997432624,10.03678235292566,0.03162277660168379,0.661003589594053,-2.06155759616639
4668158,1862.5,1,211476.0,242498,1.22,0.16,9.95,-0.03,-0.01,-0.0,32.55,2.748673,20.945096604748485,-1017.516864982492,10.02579173930917,0.03162277660168379,0.5691627180551388,-2.4180773511318283
4708221,1862.5,1,211785.0,243021,1.27,0.19,9.959999999999999,-0.03,-0.01,-0.0,32.55,2.788736,20.012969423603067,-920.5331021203905,10.042439942563758,0.03162277660168379,0.5441582793490672,-2.1879136888976602
4748167,1862.5,1,211901.0,243440,1.24,0.18,9.94,-0.03,-0.01,-0.0,32.55,2.828682,15.65683053023214,-661.9864529554205,10.018662585395317,0.03162277660168379,0.4273042596855904,-1.5743259926273592
4788169,1862.5,1,212087.0,243982,1.24,0.14,9.93,-0.03,-0.01,-0.0,32.55,2.868684,12.796180525832225,-366.11398972561983,10.008101718108184,0.03162277660168379,0.3505669333406545,-0.8721559831171767
4828170,1862.5,1,212189.0,244556,1.23,0.16,9.93,-0.03,-0.01,-0.0,32.55,2.908685,3.950160525581154,-107.15400831627541,10.00716743139636,0.03162277660168379,0.113271240903965,-0.2575873591093124
4868170,1862.5,1,212301.0,244797,1.26,0.17,9.959999999999999,-0.03,-0.01,-0.0,32.55,2.948685,2.7142674906144495,114.28800420528879,10.040821679524042,0.03162277660168379,0.08011824175838518,0.2679429262739997
4908170,1862.5,1,212455.0,245111,1.23,0.16,9.91,-0.03,-0.01,-0.0,32.55,2.988685,-11.740969637954016,326.8216247905737,9.987321963369359,0.03162277660168379,-0.3076454648195832,0.7723316509242357
4948170,1862.5,1,212639.0,245492,1.26,0.16,9.92,-0.03,-0.01,-0.0,32.55,3.028685,-13.048469132535278,533.1347861257233,10.000979951984705,0.03162277660168379,-0.342719317006044,1.2619578664746207
4988170,1920.0,1,212825.0,245778,1.25,0.14,9.94,-0.03,-0.01,-0.0,32.55,3.068685,29.757245430970134,699.7797624177784,10.019266440214073,0.03162277660168379,0.8055498116310155,1.6574428105970949
5028169,1931.0,1,212918.0,245990,1.25,0.17,9.92,-0.03,-0.01,-0.0,32.55,3.108684,32.965846834224706,793.845985550613,9.999889999394993,0.03162277660168379,0.8916209816845556,1.8806825135108087
5068856,1919.0,1,212876.0,245874,1.28,0.18,9.93,-0.03,-0.01,-0.0,32.25,3.149371,12.32680188029021,817.9842648289541,10.013775511763782,0.03162277660168379,0.3379757871861436,1.9379679249526567
5109169,1917.0,1,212513.0,245797,1.24,0.17,9.94,-0.03,-0.01,-0.0,32.25,3.189684,-6.590662289203548,798.3425262285531,10.01848790985945,0.03162277660168379,-0.16948776807586968,1.8913537871269
5149170,1862.5,1,212411.0,245753,1.24,0.17,9.95,-0.03,-0.01,-0.0,32.25,3.229685,-63.99326379712335,736.1159230374885,10.028409644604672,0.03162277660168379,-1.7093203789113158,1.7436764599519143
5189170,1862.5,1,212501.0,245959,1.23,0.17,9.92,-0.03,-0.01,-0.0,32.25,3.269685,-86.07260628658996,584.1120082489668,9.997409664508101,0.03162277660168379,-2.3016017511483327,1.382937954152734
5229170,1862.5,1,212423.0,244990,1.26,0.17,9.93,-0.03,-0.01,-0.0,32.25,3.309685,-87.04200778248632,291.75737567850456,10.01106387952849,0.03162277660168379,-2.3276060784290036,0.6891165255160759
5269161,1862.5,1,211664.0,242672,1.23,0.18,9.95,-0.03,-0.01,-0.0,32.25,3.349676,-110.76659551025055,-116.00583400192423,10.027352591786128,0.03162277660168379,-2.9640213784707186,-0.2785946757687442
5309167,1862.5,1,211145.0,241579,1.24,0.17,9.94,-0.03,-0.01,-0.0,32.25,3.389682,-110.53183138736279,-511.81346325705385,10.01848790985945,0.03162277660168379,-2.957723798870134,-1.217932672162199
5349169,1862.5,1,210914.0,241467,1.24,0.17,9.93,-0.03,-0.01,-0.0,32.25,3.429684,-134.99972294615736,-734.7910980524117,10.008566330898747,0.03162277660168379,-3.6140783255098197,-1.7471073247665196
5389170,1862.5,1,211133.0,241839,1.24,0.16,9.92,-0.03,-0.01,-0.0,32.25,3.469685,-134.48583151456992,-704.0751575409923,9.998479884462437,0.03162277660168379,-3.6002931178014537,-1.6742116858632599
5429170,1950.0,1,211309.0,242368,1.24,0.17,9.91,-0.03,-0.01,-0.0,32.25,3.509685,-68.04348861858674,-479.7339298502886,9.988723642187725,0.03162277660168379,-1.817968211892266,-1.1418009293449722
5469170,1969.0,1,211655.0,243199,1.25,0.16,9.91,-0.03,-0.01,-0.0,32.25,3.549685,-53.11538747757461,-221.09380782399705,9.989804802897803,0.03162277660168379,-1.4175198637175088,-0.5279914015489975
5509169,2029.0,1,211819.0,243381,1.23,0.17,9.9,-0.03,-0.01,-0.0,32.25,3.589684,-5.445172379877926,-79.83530249082206,9.977564833164452,0.03162277660168379,-0.13875984509977995,-0.1927541004820446
5549167,2138.5,1,211675.0,243179,1.25,0.17,9.92,-0.03,-0.01,-0.0,32.25,3.629682,94.17831142171062,-111.48330222872798,9.999889999394993,0.03162277660168379,2.533653689007344,-0.267861719604017
5589169,2138.5,1,211439.0,243069,1.23,0.18,9.92,-0.03,-0.01,0.0,32.25,3.669684,88.1687345850534,-262.1829148810067,9.997584708318305,0.03162277660168379,2.3724459711109804,-0.6255048314168412
5629170,2114.0,1,211523.0,243260,1.24,0.17,9.91,-0.03,-0.01,-0.0,32.25,3.709685,54.83774159054283,-421.60695876966867,9.988723642187725,0.03162277660168379,1.478337540199639,-1.0038529250226624
5669170,2127.0,1,211488.0,243381,1.24,0.19,9.95,-0.03,-0.01,-0.0,32.25,3.749685,61.191993493421705,-489.08269567451447,10.028768618329968,0.03162277660168379,1.648791213735082,-1.163987593544968
5709167,2125.0,1,211636.0,243884,1.24,0.18,9.92,-0.03,-0.01,-0.0,32.25,3.789682,56.87190355928703,-411.12273418412275,9.998819930371784,0.03162277660168379,1.5329042123174765,-0.9789715690607799
5749170,2138.5,1,211879.0,244537,1.24,0.16,9.93,-0.03,-0.01,-0.0,32.25,3.829685,62.14244871328827,-189.4836838212256,10.008401470764449,0.03162277660168379,1.6742873045784104,-0.4529736698231324
5789170,2138.5,1,212024.0,245129,1.23,0.18,9.94,-0.03,-0.01,-0.0,32.25,3.869685,64.06216043987634,120.30104005911127,10.017429810086018,0.03162277660168379,1.7257838333480284,0.28221317432808873
5829169,2138.5,1,212473.0,245658,1.23,0.17,9.9,-0.03,-0.01,-0.0,32.25,3.909684,58.80890873099104,415.8944459877169,9.977564833164452,0.03162277660168379,1.5848646401098518,0.9837209198827309
5869167,2138.5,1,212769.0,246034,1.24,0.16,9.94,-0.03,-0.01,-0.0,32.25,3.949682,61.012660833595454,577.5627760336032,10.018323212993279,0.03162277660168379,1.6439805906877933,1.3673951949626888
5909170,2138.5,1,212839.0,246107,1.26,0.16,9.95,-0.03,-0.01,-0.0,32.25,3.989685,60.81493355665842,525.7092249201346,10.030737759507025,0.03162277660168379,1.6386765295288694,1.2443353870947234
5949170,2138.5,1,212609.0,244793,1.25,0.14,9.9,-0.03,-0.01,-0.0,32.25,4.029685,63.681976043046305,275.17904587922294,9.979584159673188,0.03162277660168379,1.715585335074585,0.6497725261936949
5989169,2138.5,1,212100.0,243754,1.25,0.16,9.91,-0.03,-0.01,-0.0,32.25,4.069684,66.34071403843008,-61.557467857251645,9.989804802897803,0.03162277660168379,1.7869063442520932,-0.14937680481086366
6029170,2138.5,1,211903.0,243592,1.26,0.14,9.91,-0.03,-0.01,-0.0,32.25,4.109685,71.99033794759674,-336.3425413083788,9.990760731796152,0.03162277660168379,1.9384582757980913,-0.8015018303445016
6069856,2138.5,1,212033.0,243762,1.25,0.16,9.92,-0.03,-0.01,-0.0,31.77,4.150371,76.40164595243932,-450.42140377605085,9.999724996218646,0.03162277660168379,2.056792214397701,-1.0722358995762882
6108170,2138.5,1,212050.0,243998,1.27,0.16,9.93,-0.03,-0.01,-0.0,31.77,4.188685,83.05206548909554,-400.4391139898652,10.012162603553739,0.03162277660168379,2.235190625084149,-0.9536170037473511
6148174,2138.5,1,212216.0,244458,1.26,0.17,9.9,-0.03,-0.01,-0.0,31.77,4.228689,92.6624144191753,-258.4589287438223,9.981307529577476,0.03162277660168379,2.492989545260313,-0.6166669985451433
6188167,2138.5,1,212427.0,244808,1.24,0.15,9.91,-0.03,-0.01,-0.0,31.77,4.268682,95.07725332365722,-111.92104724592708,9.98840327579939,0.03162277660168379,2.557767928074938,-0.26890058418619
6228169,2138.5,1,212509.0,245000,1.25,0.17,9.95,-0.03,-0.01,-0.0,31.77,4.308684,113.29392215479027,-11.636441968958904,10.029651040789005,0.03162277660168379,3.0464325528497955,-0.03090330159905821
6268170,2128.0,1,212574.0,245082,1.25,0.16,9.93,-0.03,-0.01,-0.0,31.77,4.348685,99.7376240095449,42.38517538621495,10.009645348362747,0.03162277660168379,2.682783007046948,0.09730180122788597
6308169,2047.0,1,212646.0,245378,1.26,0.15,9.91,-0.03,-0.01,-0.0,31.77,4.388684,41.48054336036792,81.46813400982411,9.99090586483528,0.03162277660168379,1.1200288767607685,0.1900542024782556
6348206,2014.0,1,212780.0,245767,1.25,0.17,9.92,-0.03,-0.01,-0.0,31.77,4.428721,6.9206840476734675,140.02830956406635,9.999889999394993,0.03162277660168379,0.19295593933946056,0.3290302956806278
6388169,1958.0,1,212919.0,246120,1.24,0.15,9.92,-0.03,-0.01,-0.0,31.77,4.468684,-31.771161638586783,238.67678135992216,9.998324859695249,0.03162277660168379,-0.8449580958440537,0.5631446759880017
6428170,1915.0,1,213052.0,246536,1.25,0.17,9.93,-0.03,-0.01,-0.0,31.77,4.508685,-67.12415501546091,379.32591686457425,10.00981018801056,0.03162277660168379,-1.7933069626606493,0.8969358092919316
6468169,1898.0,1,213151.0,246797,1.28,0.16,9.91,-0.03,-0.01,-0.0,31.77,4.548684,-77.22788419831652,541.6824730139132,9.993602953890054,0.03162277660168379,-2.0643408753773804,1.2822433953070513
6508170,1863.0,1,213247.0,247080,1.25,0.16,9.93,-0.03,-0.01,-0.0,31.77,4.588685,-96.72072820383403,679.279612813379,10.009645348362747,0.03162277660168379,-2.587239073179145,1.6087914758782529
6548198,1862.5,1,213326.0,247232,1.25,0.16,9.92,-0.03,-0.01,-0.0,31.77,4.628713,-95.88576260416036,728.5105274378243,9.999724996218646,0.03162277660168379,-2.5648410071415646,1.725627194257333
6588170,1862.5,1,213426.0,247118,1.25,0.16,9.94,-0.03,-0.01,-0.0,31.77,4.668685,-80.91245554620016,641.0776105172378,10.019565858858355,0.03162277660168379,-2.163180004081998,1.518129776500182
6628169,1862.5,1,213136.0,245843,1.25,0.15,9.91,-0.03,-0.01,0.0,31.77,4.708684,-77.94150705060504,424.18701349759505,9.989649643506022,0.03162277660168379,-2.0834839056743553,1.0034009946815556
6668170,1862.5,1,212618.0,244928,1.26,0.17,9.94,-0.03,-0.01,-0.0,31.77,4.748685,-69.2587294255084,152.27493899478748,10.020982985715523,0.03162277660168379,-1.8505672122051315,0.35809422346209974
6708170,1862.5,1,212453.0,244635,1.26,0.16,9.93,-0.03,-0.01,-0.0,31.77,4.788685,-63.11226858626777,-69.56795802374315,10.010899060523984,0.03162277660168379,-1.6856875622788134,-0.1683874484340855
6748169,1862.5,1,212418.0,244790,1.25,0.17,9.91,-0.03,-0.01,-0.0,31.77,4.828684,-59.843521049377806,-167.11221729156566,9.989969969924834,0.03162277660168379,-1.5980029639911077,-0.3998812911191116
6788170,1862.5,1,212469.0,244897,1.25,0.16,9.93,-0.03,-0.01,-0.0,31.77,4.868685,-54.095089160768346,-136.49028618145698,10.009645348362747,0.03162277660168379,-1.4438004949266006,-0.3272087570681649
6828170,1862.5,1,212452.0,245194,1.25,0.16,9.9,-0.03,-0.01,-0.0,31.77,4.908685,-52.49292430065858,-36.13004143599052,9.979884768873838,0.03162277660168379,-1.4008222041397056,-0.089031965493495
6868169,1862.5,1,212521.0,245289,1.25,0.16,9.92,-0.03,-0.01,-0.0,31.77,4.948684,-50.68287236906789,54.367720779779006,9.999724996218646,0.03162277660168379,-1.3522673143202173,0.1257389998813483
6908170,1862.5,1,212461.0,245149,1.26,0.17,9.93,-0.03,-0.01,-0.0,31.77,4.988685,-48.90704727989866,75.83190653240278,10.01106387952849,0.03162277660168379,-1.3046305642146447,0.17667820304180698
6948170,1862.5,1,212373.0,245034,1.27,0.18,9.93,-0.03,-0.01,-0.0,31.77,5.028685,-51.09997749819399,10.9616973405043,10.0125021847688,0.03162277660168379,-1.3634562162707062,0.022727021144136446
6988167,1862.5,1,212258.0,244963,1.26,0.17,9.92,-0.03,-0.01,-0.0,31.77,5.068682,-50.90292299272843,-115.40477978978498,10.001144934456255,0.03162277660168379,-1.35817020229822,-0.27716824278053415
7028170,1862.5,1,212097.0,244981,1.25,0.17,9.9,-0.03,-0.01,-0.0,31.77,5.108685,-53.81169647527577,-250.42034585227185,9.980050100074648,0.03162277660168379,-1.4361984475048735,-0.597589684746514
7068157,1862.5,1,211911.0,245129,1.25,0.17,9.93,-0.03,-0.01,0.0,31.77,5.148672,-58.61546316055852,-337.5255328762585,10.00981018801056,0.03162277660168379,-1.5650601437090554,-0.8043093278432579
7108847,1862.5,1,211857.0,245156,1.22,0.19,9.94,-0.03,-0.01,-0.0,32.17,5.189362,-59.290702723830606,-346.1443907878398,10.016391565828485,0.03162277660168379,-1.5831735370455784,-0.82476376106654
7147157,1862.5,1,211822.0,245358,1.22,0.17,9.95,-0.03,-0.01,-0.0,32.17,5.227672,-69.10938408284113,-293.42268620428297,10.025956313489502,0.03162277660168379,-1.846561003028641,-0.6996436353045273
7187169,1862.5,1,211899.0,245238,1.25,0.18,9.959999999999999,-0.03,-0.01,-0.0,32.17,5.267684,-70.51986533335817,-239.5201486822676,10.039746012723628,0.03162277660168379,-1.8843973548570234,-0.5717211349430801
7227170,1862.5,1,211843.0,245333,1.22,0.17,9.91,-0.03,-0.01,-0.0,32.17,5.307685,-77.65028913068815,-250.39884297667572,9.986260561391337,0.03162277660168379,-2.075671945272424,-0.5975386537239004
7267169,1862.5,1,211837.0,244895,1.25,0.17,9.92,-0.03,-0.01,-0.0,32.17,5.347684,-89.62974458100469,-348.6379994301368,9.999889999394993,0.03162277660168379,-2.397022470821389,-0.830681639279885
7307170,1862.5,1,211482.0,243525,1.25,0.17,9.91,-0.03,-0.01,-0.0,32.17,5.387685,-83.01419563002675,-490.1218056334444,9.989969969924834,0.03162277660168379,-2.2195594683494786,-1.1664536285445726
7347169,1862.5,1,211271.0,243078,1.23,0.16,9.93,-0.03,-0.01,-0.0,32.17,5.427684,-112.36796118688162,-590.0560771531862,10.00716743139636,0.03162277660168379,-3.006978231051849,-1.4036194925706187
7387170,1893.0,1,211337.0,243254,1.26,0.16,9.91,-0.03,-0.01,-0.0,32.17,5.467685,-60.465373488570336,-581.4356033890782,9.991061004718167,0.03162277660168379,-1.6146842404462194,-1.3831612245761935
7427169,2105.0,1,211526.0,243471,1.24,0.15,9.9,-0.03,-0.01,-0.0,32.17,5.507684,113.05477002795489,-459.3958685109009,9.97848184845771,0.03162277660168379,3.0400172644451233,-1.0935342654986486
7467167,2138.5,1,211629.0,243810,1.27,0.17,9.93,-0.03,-0.01,-0.0,32.17,5.547682,168.55739417636394,-277.27130537033224,10.012327401758295,0.03162277660168379,4.52888272359808,-0.6613128791740749
7507169,2138.5,1,211754.0,244198,1.26,0.17,9.92,-0.03,-0.01,-0.0,32.17,5.587684,138.91195639881096,-102.9907644224327,10.001144934456255,0.03162277660168379,3.73363981381339,-0.2477070715941399
7547170,2138.5,1,211856.0,244352,1.26,0.18,9.92,-0.03,-0.01,-0.0,32.17,5.627685,146.8827294805124,25.12993862299314,10.001319912891498,0.03162277660168379,3.9474568883423182,0.056351353761872676
7587169,2138.5,1,211910.0,244425,1.28,0.17,9.92,-0.03,-0.01,-0.0,32.17,5.667684,135.11806157047886,111.54695835198179,10.003684321288832,0.03162277660168379,3.6318680678422655,0.2614378254887686
7627169,2138.5,1,211925.0,244593,1.25,0.18,9.93,-0.03,-0.01,-0.0,32.17,5.707684,128.69393802101402,185.12272042166984,10.009985014973799,0.03162277660168379,3.459540077861931,0.4360491867091806
7667170,2138.5,1,212066.0,244958,1.24,0.17,9.94,-0.03,-0.01,-0.0,32.17,5.747685,129.37367024125444,272.5637145244692,10.01848790985945,0.03162277660168379,3.4777739873340896,0.6435657733847544
7707169,2138.5,1,212209.0,245386,1.27,0.15,9.92,-0.03,-0.01,-0.0,32.17,5.787684,118.30025425580207,385.3679999661357,10.002089781640635,0.03162277660168379,3.1807280939455542,0.9112749928123309
7747169,2138.5,1,212367.0,245698,1.25,0.16,9.95,-0.03,-0.01,-0.0,32.17,5.827684,121.46657074243797,521.2183611158399,10.029486527235578,0.03162277660168379,3.265664965346325,1.233677585940307
7787173,2138.5,1,212415.0,245940,1.26,0.15,9.92,-0.03,-0.01,-0.0,32.17,5.867688,115.00045066810955,664.329057733284,10.000824965971558,0.03162277660168379,3.092210412861367,1.5733105416670172
7827169,2138.5,1,212429.0,246061,1.23,0.16,9.93,-0.03,-0.01,-0.0,32.17,5.907684,113.66468174565145,776.547203063863,10.00716743139636,0.03162277660168379,3.056378229418292,1.8396287225272197
7867170,2138.5,1,212486.0,246164,1.24,0.18,9.92,-0.03,-0.01,-0.0,32.17,5.947685,116.91893983196178,794.4802048394042,9.998819930371784,0.03162277660168379,3.143674146218931,1.8821876544731704
7907169,2117.0,1,212536.0,246084,1.22,0.18,9.93,-0.03,-0.01,-0.0,32.17,5.987684,86.86014232110765,655.681755568564,10.006283026179101,0.03162277660168379,2.3373428052373457,1.552788604015378
7947170,2086.0,1,212329.0,244787,1.24,0.16,9.94,-0.03,-0.01,-0.0,32.17,6.027685,68.81360882305226,349.267064170684,10.018323212993279,0.03162277660168379,1.8532420839659243,0.8255995833669764
7987201,2075.0,1,211664.0,243094,1.24,0.16,9.94,-0.03,-0.01,-0.0,32.17,6.067716,45.12361757603988,-51.442248352522974,10.018323212993279,0.03162277660168379,1.2177548392367283,-0.12537117854101912
8027170,2002.0,1,211244.0,242471,1.24,0.14,9.95,-0.03,-0.01,-0.0,32.17,6.107685,-11.467959978413473,-415.13793565374715,10.0279459511906,0.03162277660168379,-0.30032194348448116,-0.9885005195529442
8067169,2005.0,1,211205.0,242479,1.24,0.16,9.92,-0.03,-0.01,0.0,32.17,6.147684,-17.761077727191065,-627.4652923105319,9.998479884462437,0.03162277660168379,-0.46913568500206926,-1.4923997348279057
8107170,1993.0,1,211261.0,242701,1.25,0.18,9.92,-0.03,-0.01,-0.0,32.17,6.187685,-17.077993238169352,-655.9288296272937,10.000064999788751,0.03162277660168379,-0.45081185046285627,-1.5599499287534584
8147856,1931.0,1,211332.0,243112,1.24,0.16,9.9,-0.03,-0.01,-0.0,32.47,6.228371,-81.41802280079061,-554.0974904184841,9.978637181499286,0.03162277660168379,-2.17674191460763,-1.3182819085526432
8188167,1870.0,1,211518.0,243669,1.25,0.18,9.9,-0.03,-0.01,-0.0,32.47,6.268682,-132.83676870267723,-409.3319308378059,9.980225448355363,0.03162277660168379,-3.556056783064638,-0.9747216013923202
8228169,1879.0,1,211638.0,243931,1.23,0.17,9.95,-0.03,-0.01,-0.0,32.47,6.308684,-125.1112632048725,-282.3409766228939,10.027178067631988,0.03162277660168379,-3.34881904490974,-0.6733443168846531
8268170,1887.0,1,211693.0,244043,1.25,0.16,9.95,-0.03,-0.01,-0.0,32.47,6.348685,-102.1236996354763,-182.94609207793047,10.029486527235578,0.03162277660168379,-2.7321745183907558,-0.43745853601699025
8308170,1903.0,1,211829.0,244572,1.25,0.16,9.9,-0.03,-0.01,-0.0,32.47,6.388685,-96.32208681990004,-87.97016068812174,9.979884768873838,0.03162277660168379,-2.5765454637104965,-0.21205989661936683
8348167,1885.0,1,212028.0,245316,1.25,0.18,9.9,-0.03,-0.01,-0.0,32.47,6.428682,-86.27425248067367,26.510917174160785,9.980225448355363,0.03162277660168379,-2.3070109377939607,0.05962871763623094
8388170,1924.0,1,212264.0,245857,1.24,0.14,9.95,-0.03,-0.01,-0.0,32.47,6.468685,-70.89209857886246,167.8572451773601,10.0279459511906,0.03162277660168379,-1.8943825624122166,0.39507444109022527
8428170,1882.0,1,212404.0,246198,1.25,0.16,9.92,-0.03,-0.01,-0.0,32.47,6.508685,-72.93857968890676,328.553449233289,9.999724996218646,0.03162277660168379,-1.9492796971748312,0.7764416487663359
8468169,1918.0,1,212539.0,246554,1.26,0.15,9.93,-0.03,-0.01,-0.0,32.47,6.548684,-68.29622230589608,489.56969791881016,10.010744228078151,0.03162277660168379,-1.8247478275081528,1.1585683922848542
8508170,1904.0,1,212615.0,246736,1.25,0.16,9.91,-0.03,-0.01,-0.0,32.47,6.588685,-40.84114452247628,614.3594454735527,9.989804802897803,0.03162277660168379,-1.0882616231659896,1.4547217323786588
8548170,1945.0,1,212708.0,246987,1.27,0.17,9.94,-0.03,-0.01,-0.0,32.47,6.628685,-26.814362923230227,646.4310527343813,10.022245257426102,0.03162277660168379,-0.7119912945711149,1.5308346647195508
8588170,1923.0,1,212766.0,247052,1.24,0.16,9.93,-0.03,-0.01,-0.0,32.47,6.668685,-18.25597532505583,531.5673568389417,10.008401470764449,0.03162277660168379,-0.48241138053149835,1.2582380142613003
8628169,1963.0,1,212589.0,245991,1.24,0.16,9.93,-0.03,-0.01,-0.0,32.47,6.708684,8.173638656950835,261.11050557102334,10.008401470764449,0.03162277660168379,0.2265666175418359,0.6163848057746764
8668170,1920.0,1,211992.0,244634,1.25,0.13,9.91,-0.03,-0.01,-0.0,32.47,6.748685,-19.210792237274717,-99.86756108805977,9.989369349463459,0.03162277660168379,-0.5080244743667838,-0.24029502759700866
8708170,1883.0,1,211694.0,244084,1.27,0.14,9.92,-0.03,-0.01,-0.0,32.47,6.788685,-59.43892777987649,-434.0686291543568,10.001944810885531,0.03162277660168379,-1.5871496943807275,-1.0334271919788036
8748170,1899.0,1,211604.0,244026,1.24,0.14,9.92,-0.03,-0.01,-0.0,32.47,6.828685,-33.580262416316145,-635.3622888952198,9.99817983434985,0.03162277660168379,-0.8934874708315461,-1.5111410333808073
8788169,1901.0,1,211633.0,244050,1.26,0.16,9.92,-0.03,-0.01,-0.0,32.47,6.868684,-37.80467921231367,-666.5000798517549,10.000979951984705,0.03162277660168379,-1.006808027276022,-1.5850378155733928
8828170,1879.0,1,211719.0,244387,1.26,0.16,9.92,-0.03,-0.01,-0.0,32.47,6.908685,-42.58953379485793,-568.7460676326122,10.000979951984705,0.03162277660168379,-1.1351624037460595,-1.3530461832995164
8866170,1968.0,1,211897.0,244770,1.25,0.16,9.95,-0.03,-0.01,-0.0,32.47,6.946685,28.24339989237228,-422.873580414573,10.029486527235578,0.03162277660168379,0.764940698683772,-1.0068588949691035
8906170,1975.0,1,212025.0,244990,1.27,0.15,9.95,-0.03,-0.01,-0.0,32.47,6.986685,61.498024917433234,-296.30438087627937,10.03184429703731,0.03162277660168379,1.6570005484037962,-0.7064825264711905
8946169,1968.0,1,212023.0,245094,1.26,0.16,9.91,-0.03,-0.01,-0.0,32.47,7.026684,30.76506808033965,-212.24030336877684,9.991061004718167,0.03162277660168379,0.8325847915913513,-0.5069801008025269
8986170,1955.0,1,212186.0,245354,1.25,0.15,9.93,-0.03,-0.01,-0.0,32.47,7.066685,39.91190322109443,-151.78660863444216,10.009490496523787,0.03162277660168379,1.07794989118055,-0.3635102728126068
9026173,1981.0,1,212306.0,245667,1.27,0.17,9.93,-0.03,-0.01,-0.0,32.47,7.106688,53.844740431730806,-76.13516519859846,10.012327401758295,0.03162277660168379,1.4517001487440413,-0.18397286613090563
9066170,1962.0,1,212409.0,246041,1.25,0.18,9.94,-0.03,-0.01,-0.0,32.47,7.146685,35.642063424541895,48.79820886873815,10.0199051891722,0.03162277660168379,0.9634108565539148,0.11252133106265459
9106169,1981.0,1,212630.0,246401,1.26,0.15,9.92,-0.03,-0.01,-0.0,32.47,7.186684,67.40815448068886,232.88082447601056,10.000824965971558,0.03162277660168379,1.8155405796340542,0.5493896037657655
9146170,2002.0,1,212763.0,246918,1.26,0.16,9.93,-0.03,-0.01,-0.0,32.47,7.226685,63.11750658632781,448.4518049723732,10.010899060523984,0.03162277660168379,1.7004433649470505,1.060986647211086
9186856,1911.0,1,212934.0,247225,1.26,0.15,9.92,-0.03,-0.01,-0.0,32.55,7.267371,4.0504930278955396,629.2545834329076,10.000824965971558,0.03162277660168379,0.11596267395633456,1.4900711496525887
9227170,1962.0,1,213035.0,247474,1.26,0.14,9.91,-0.03,-0.01,-0.0,32.55,7.307685,19.62422577558484,692.606809382002,9.990760731796152,0.03162277660168379,0.533730177995664,1.6404198256042828
9267169,1936.0,1,213048.0,247293,1.25,0.17,9.93,-0.03,-0.01,-0.0,32.55,7.347684,22.726826798651366,584.5403570283783,10.00981018801056,0.03162277660168379,0.6169578734002026,1.383954519409364
9307170,1926.0,1,212790.0,246032,1.28,0.14,9.91,-0.03,-0.01,-0.0,32.55,7.387685,-10.266629960894374,322.9576702255385,9.993302757347042,0.03162277660168379,-0.2680961019937222,0.7631616423872452
9347169,1915.0,1,212229.0,244963,1.24,0.16,9.94,-0.03,-0.01,-0.0,32.55,7.427684,-11.690887082040238,1.9441531607987261,10.018323212993279,0.03162277660168379,-0.30630199342971276,0.0013264182853821363
9387170,1910.0,1,212017.0,244693,1.27,0.15,9.94,-0.03,-0.01,-0.0,32.55,7.467685,-19.812198619399087,-256.1053761364744,10.021925962608185,0.03162277660168379,-0.524157282553742,-0.6110815039078791
9427170,1926.0,1,212011.0,244708,1.25,0.16,9.91,-0.03,-0.01,-0.0,32.55,7.507685,-10.76014126952347,-369.82273318085686,9.989804802897803,0.03162277660168379,-0.28133461012541916,-0.8809576417737714
9467170,1951.0,1,212051.0,244836,1.26,0.17,9.91,-0.03,-0.01,-0.0,32.55,7.547685,20.162535014790386,-338.67634443768793,9.991226150978667,0.03162277660168379,0.5481703967221333,-0.8070404551547093
9507169,1965.0,1,212095.0,245189,1.26,0.16,9.94,-0.03,-0.01,-0.0,32.55,7.587684,25.9757865527444,-228.05301194733585,10.020818329857098,0.03162277660168379,0.7041116617168196,-0.5445071136640272
9547170,1964.0,1,212198.0,245413,1.25,0.14,9.93,-0.03,-0.01,-0.0,32.55,7.627685,24.77188000827163,-118.73968340082234,10.009345632957231,0.03162277660168379,0.6718167045392845,-0.2850826977950885
9587169,1967.0,1,212227.0,245409,1.25,0.16,9.92,-0.03,-0.01,-0.0,32.55,7.667684,30.26552430893421,-60.52774689292099,9.999724996218646,0.03162277660168379,0.819184461823306,-0.1469330519471329
9627174,1963.0,1,212188.0,245345,1.27,0.16,9.92,-0.03,-0.01,-0.0,32.55,7.707689,14.085609913531105,-55.654707806334336,10.002244748055308,0.03162277660168379,0.3851560524465956,-0.1353682653346172
9667170,1936.0,1,212177.0,245492,1.25,0.15,9.93,-0.03,-0.01,0.0,32.55,7.747685,-0.7374242128987077,-70.78863973590823,10.009490496523787,0.03162277660168379,-0.012473858738774398,-0.17128439288130887
9707170,1951.0,1,212235.0,245695,1.27,0.15,9.93,-0.03,-0.01,-0.0,32.55,7.787685,-2.1568709178320833,-60.93020035477114,10.012007790648187,0.03162277660168379,-0.050550710104087,-0.14788816195652651
9747170,1939.0,1,212301.0,245848,1.26,0.16,9.92,-0.03,-0.01,-0.0,32.55,7.827685,-4.461640666429509,8.013852194584688,10.000979951984705,0.03162277660168379,-0.11237647280697916,0.01573114044760383
9787170,1963.0,1,212331.0,246062,1.24,0.16,9.91,-0.03,-0.01,-0.0,32.55,7.867685,12.307977530627541,140.86755442710083,9.988558454551887,0.03162277660168379,0.3374708214402209,0.3310220071330065
9827189,1952.0,1,212443.0,246384,1.26,0.16,9.93,-0.03,-0.01,-0.0,32.55,7.907704,-1.9929991589119522,300.75775677930653,10.010899060523984,0.03162277660168379,-0.0461548278313059,0.7104763966381036
9867170,1923.0,1,212532.0,246575,1.26,0.17,9.92,-0.03,-0.01,-0.0,32.55,7.947685,-24.544187478298507,413.221403507289,10.001144934456255,0.03162277660168379,-0.6510935287801092,0.9773772059614885
9907169,1957.0,1,212588.0,246735,1.25,0.17,9.93,-0.03,-0.01,-0.0,32.55,7.987684,-3.8219507909666417,398.360941213736,10.00981018801056,0.03162277660168379,-0.09521670469223463,0.9421100816198582
9947170,1932.0,1,212514.0,246028,1.26,0.13,9.92,-0.03,-0.01,-0.0,32.55,8.027685,-17.860776678179967,222.03651657552018,10.00054498514956,0.03162277660168379,-0.4718101229537641,0.5236536914118519
9987169,1923.0,1,212043.0,244516,1.26,0.16,9.94,-0.03,-0.01,-0.0,32.55,8.067684,-38.159409368207335,-69.50052121973916,10.020818329857098,0.03162277660168379,-1.016323712066309,-0.1682274061618446
10027167,1930.0,1,211582.0,243778,1.26,0.15,9.95,-0.03,-0.01,-0.0,32.55,8.107682,-26.07533387000759,-366.0453678571481,10.03058323329207,0.03162277660168379,-0.6921667394705929,-0.8719931284279926
10067170,1931.0,1,211506.0,243702,1.25,0.15,9.95,-0.03,-0.01,-0.0,32.55,8.147685,-28.991908881510263,-556.4206386381283,10.029331981742352,0.03162277660168379,-0.7704042617550133,-1.3237952469338974
10107170,1922.0,1,211538.0,243745,1.26,0.15,9.91,-0.03,-0.01,-0.0,32.55,8.187685,-37.80878400009126,-591.6396371794291,9.99090586483528,0.03162277660168379,-1.0069181387677393,-1.4073776265535818
10147169,1931.0,1,211558.0,243944,1.25,0.16,9.91,-0.03,-0.01,-0.0,32.55,8.227684,-31.690685184680678,-501.71398813638893,9.989804802897803,0.03162277660168379,-0.8427993039971037,-1.193964410756212
10187856,1953.0,1,211663.0,244357,1.26,0.16,9.91,-0.03,-0.01,-0.0,32.55,8.268371,-5.52595104736351,-360.7257482948117,9.991061004718167,0.03162277660168379,-0.14092674386719858,-0.8593685087594324
10226170,1984.0,1,211773.0,244466,1.28,0.16,9.93,-0.03,-0.01,-0.0,32.55,8.306685,15.673409601047904,-234.12786779385888,10.013435973730497,0.03162277660168379,0.4277489955203581,-0.5589240740697444
10266169,1983.0,1,211814.0,244472,1.27,0.15,9.92,-0.03,-0.01,-0.0,32.55,8.346684,26.78852708832347,-146.322833055233,10.002089781640635,0.03162277660168379,0.7259135373802398,-0.35054353941492983
10306169,1995.0,1,211835.0,244660,1.26,0.16,9.91,-0.03,-0.01,-0.0,32.55,8.386684,23.548904848738278,-81.7524982676851,9.991061004718167,0.03162277660168379,0.6390102291632282,-0.1973040250075562
10346170,1967.0,1,211950.0,244950,1.26,0.15,9.95,-0.03,-0.01,-0.0,32.55,8.426685,9.05964691318039,-6.803864725421793,10.03058323329207,0.03162277660168379,0.25033390979989645,-0.019434539781850453
10386170,1994.0,1,212088.0,245247,1.24,0.15,9.9,-0.03,-0.01,-0.0,32.55,8.466685,24.57672914369049,107.3964186657325,9.97848184845771,0.03162277660168379,0.6665817559930359,0.25158768783434793
10426170,1978.0,1,212202.0,245599,1.27,0.16,9.95,-0.03,-0.01,-0.0,32.55,8.506685,14.99599872391987,270.5601057396841,10.031998803827678,0.03162277660168379,0.4095773563936458,0.6388107719084104
10466170,1954.0,1,212344.0,245977,1.25,0.15,9.9,-0.03,-0.01,-0.0,32.55,8.546685,-12.324780871480892,464.5069811057968,9.979729455250778,0.03162277660168379,-0.3233062807467624,1.0990890885644664
10506170,1973.0,1,212498.0,246243,1.27,0.16,9.94,-0.03,-0.01,-0.0,32.55,8.586685,7.284545965329777,638.8174926904525,10.022080622305928,0.03162277660168379,0.2027165848839139,1.5127660230146291
10546169,1991.0,1,212489.0,246390,1.27,0.16,9.93,-0.03,-0.01,-0.0,32.55,8.626684,23.650832563835802,719.9762622323647,10.012162603553739,0.03162277660168379,0.6417444540159722,1.7053735180109373
10586170,1985.0,1,212549.0,246497,1.28,0.16,9.92,-0.03,-0.01,-0.0,32.55,8.666685,21.215478042227893,643.5860190378976,10.003519380697975,0.03162277660168379,0.5764157369751597,1.5240827780589623
10626170,1967.0,1,212413.0,245414,1.26,0.18,9.92,-0.03,-0.01,-0.0,32.55,8.706685,-4.125300881021752,399.5159947129471,10.001319912891498,0.03162277660168379,-0.10335411221203634,0.9448512759766168
10666170,1939.0,1,211842.0,243897,1.25,0.16,9.92,-0.03,-0.01,-0.0,32.55,8.746685,-22.939098812235965,56.31915079018218,9.999724996218646,0.03162277660168379,-0.6080368064999444,0.13037016972394025
10706170,1970.0,1,211421.0,243234,1.24,0.16,9.959999999999999,-0.03,-0.01,-0.0,32.55,8.786685,-1.760317273617013,-264.75607375457525,10.038167163381967,0.03162277660168379,-0.03991310453800904,-0.6316114997123681
10746170,1960.0,1,211359.0,243122,1.25,0.15,9.92,-0.03,-0.01,-0.0,32.55,8.826685,-5.0534913461700475,-456.46795863164283,9.999569990754603,0.03162277660168379,-0.12825294797481399,-1.0865856955461728
10786169,1953.0,1,211371.0,243221,1.24,0.13,9.9,-0.03,-0.01,-0.0,32.55,8.866684,-14.642471637295763,-484.56144431829114,9.97820124070466,0.03162277660168379,-0.3854786514979648,-1.153257676089515
10826170,1968.0,1,211418.0,243431,1.25,0.15,9.91,-0.03,-0.01,-0.0,32.55,8.906685,-3.037831148086354,-395.1119092383959,9.989649643506022,0.03162277660168379,-0.07418258837719052,-0.9409743827674576
10866169,1968.0,1,211549.0,243861,1.29,0.15,9.92,-0.03,-0.01,-0.0,32.55,8.946684,3.987658750986534,-270.4111346179972,10.00464891937743,0.03162277660168379,0.11427713591239412,-0.6450321948892814
10906169,1983.0,1,211635.0,244009,1.26,0.16,9.9,-0.03,-0.01,-0.0,32.55,8.986684,9.342786706047395,-172.71469682475592,9.981142219205175,0.03162277660168379,0.25792917334246696,-0.41317719930927455
10946169,1977.0,1,211633.0,244065,1.25,0.14,9.93,-0.03,-0.01,-0.0,32.55,9.026684,10.902457192506683,-116.42213446239877,10.009345632957231,0.03162277660168379,0.2997675467631602,-0.2795826477317297
10986170,2000.0,1,211665.0,244266,1.26,0.18,9.91,-0.03,-0.01,-0.0,32.55,9.066685,29.396223336194492,-79.2717585818886,9.991401303120599,0.03162277660168379,0.7958653447224737,-0.19141668764012065
11026171,2009.0,1,211759.0,244544,1.26,0.15,9.91,-0.03,-0.01,-0.0,32.55,9.106686,36.18737856581978,-31.94985909179787,9.99090586483528,0.03162277660168379,0.9780390095585512,-0.07911147933423957
11066170,1973.0,1,211863.0,244787,1.28,0.14,9.92,-0.03,-0.01,-0.0,32.55,9.146685,6.9966398004360375,41.885152686136436,10.003219481746864,0.03162277660168379,0.19499346276195254,0.09611513809527555
11106170,1978.0,1,211973.0,245160,1.27,0.16,9.91,-0.03,-0.01,-0.0,32.55,9.186685,-0.47012634894524713,144.93325420540546,9.992327056296746,0.03162277660168379,-0.005303557098953984,0.34067080114659615
11146170,1975.0,1,212106.0,245425,1.25,0.15,9.91,-0.03,-0.01,-0.0,32.55,9.226685,9.437455939996909,271.88348128014684,9.989649643506022,0.03162277660168379,0.26046868844890614,0.641951431250914
11186170,1973.0,1,212184.0,245711,1.25,0.16,9.9,-0.03,-0.01,-0.0,32.55,9.266685,-5.740535080959877,404.8787926156014,9.979884768873838,0.03162277660168379,-0.14668298982149924,0.9575783672821139
11226856,1934.0,1,212183.0,246032,1.24,0.15,9.94,-0.03,-0.01,-0.0,32.47,9.307371,-37.51294212320732,501.6696997639128,10.018168495288947,0.03162277660168379,-0.9989821400898081,1.1872843407644869
11267203,1917.0,1,212307.0,246188,1.27,0.17,9.92,-0.03,-0.01,-0.0,32.47,9.347718,-56.63993011307704,499.1416488886911,10.002409709664967,0.03162277660168379,-1.5120662003966534,1.1812847236060697
11307170,1941.0,1,212336.0,246012,1.25,0.15,9.95,-0.03,-0.01,-0.0,32.47,9.387685,-40.69531899267281,347.9626954485356,10.029331981742352,0.03162277660168379,-1.0843498334494077,0.8225040313577163
11347169,1931.0,1,211988.0,244525,1.26,0.17,9.91,-0.03,-0.01,-0.0,32.47,9.427684,-36.08178941849872,59.67591846330508,9.991226150978667,0.03162277660168379,-0.9605912736847098,0.13833651293557434
11387170,1904.0,1,211453.0,243304,1.25,0.16,9.93,-0.03,-0.01,-0.0,32.47,9.467685,-86.71747375736577,-278.1557469962258,10.009645348362747,0.03162277660168379,-2.3189004089631804,-0.6634118524211476
11427169,1894.0,1,211223.0,243007,1.26,0.16,9.93,-0.03,-0.01,-0.0,32.47,9.507684,-71.04034109729955,-543.4968113780269,10.010899060523984,0.03162277660168379,-1.8983591881783903,-1.2931241807215441
11465170,2013.0,1,211286.0,243127,1.27,0.15,9.92,-0.03,-0.01,-0.0,32.47,9.545685,19.941938310311254,-650.9757092638126,10.002089781640635,0.03162277660168379,0.5422528600517277,-1.5481950917714535
11505170,2000.0,1,211357.0,243274,1.25,0.17,9.94,-0.03,-0.01,-0.0,32.47,9.585685,29.28624243866831,-596.6850700751735,10.01973053529884,0.03162277660168379,0.7929150921532343,-1.4193515413468494
11545170,2009.0,1,211469.0,243782,1.27,0.17,9.9,-0.03,-0.01,-0.0,32.47,9.625685,20.020255267559115,-445.6581941281108,9.982574818151878,0.03162277660168379,0.5443537231064278,-1.0609317622216896
11585170,2022.0,1,211678.0,244159,1.25,0.14,9.91,-0.03,-0.01,-0.0,32.47,9.665685,42.19305450414914,-280.3360668475233,9.989504492215817,0.03162277660168379,1.1391420853254817,-0.6685862278733563
11625170,2015.0,1,211801.0,244345,1.25,0.16,9.92,-0.03,-0.01,-0.0,32.47,9.705685,29.788064157798352,-153.18091879908494,9.999724996218646,0.03162277660168379,0.8063765281795324,-0.3668192755189754
11665170,2015.0,1,211846.0,244445,1.28,0.15,9.9,-0.03,-0.01,-0.0,32.47,9.745685,29.688194348953523,-72.14562035952154,9.983531439325466,0.03162277660168379,0.8036975069425601,-0.17450480442953611
11705170,2028.0,1,211969.0,244659,1.27,0.15,9.94,-0.03,-0.01,-0.0,32.47,9.785685,41.76510922649461,-16.16046715806112,10.021925962608185,0.03162277660168379,1.127662394912939,-0.0416398019660726
11745169,2032.0,1,212076.0,244961,1.27,0.17,9.89,-0.03,-0.01,-0.0,32.47,9.825684,45.69603252117459,41.84395416821147,9.97265761971201,0.03162277660168379,1.2331099481741936,0.0960173650095095
11785170,2029.0,1,212193.0,245289,1.27,0.16,9.91,-0.03,-0.01,-0.0,32.47,9.865685,39.58923630487258,122.24903209845364,9.992327056296746,0.03162277660168379,1.0692943071654675,0.2868361851140855
11825170,2004.0,1,212325.0,245666,1.25,0.15,9.92,-0.03,-0.01,-0.0,32.47,9.905685,16.950073645351335,235.56973483717343,9.999569990754603,0.03162277660168379,0.4619956825494863,0.5557709756354529
11865170,2014.0,1,212454.0,245980,1.24,0.16,9.91,-0.03,-0.01,-0.0,32.47,9.945685,23.36323694923574,376.96688863240047,9.988558454551887,0.03162277660168379,0.6340296624479744,0.8913373198004181
11905170,2013.0,1,212547.0,246267,1.25,0.17,9.95,-0.03,-0.01,-0.0,32.47,9.985685,23.371198122894338,515.3016422325928,10.029651040789005,0.03162277660168379,0.6342432220166699,1.219635919104648
11945170,1986.0,1,212651.0,246581,1.27,0.15,9.91,-0.03,-0.01,-0.0,32.47,10.025685,-4.080286074956737,591.1534661017647,9.992171936070756,0.03162277660168379,-0.10214658390271783,1.399648872341915
11985170,1984.0,1,212729.0,246780,1.25,0.17,9.91,-0.03,-0.01,-0.0,32.47,10.065685,-8.104998377805408,541.0545919944977,9.989969969924834,0.03162277660168379,-0.21011004009384468,1.2807532964429615
12025173,1991.0,1,212682.0,246029,1.27,0.15,9.93,-0.03,-0.01,-0.0,32.47,10.105688,1.1769896360120014,342.33662605811264,10.012007790648187,0.03162277660168379,0.03888055373991781,0.8091521392814673
12065170,1993.0,1,212163.0,244674,1.26,0.15,9.92,-0.03,-0.01,-0.0,32.47,10.145685,-0.4425035873897344,44.1232570396113,10.000824965971558,0.03162277660168379,-0.004562572754566009,0.1014266487982626
12106170,1957.0,1,211830.0,243945,1.26,0.15,9.94,-0.03,-0.01,-0.0,32.47,10.186685,-32.04913441368079,-249.28218042130882,10.020663650677035,0.03162277660168379,-0.852414753430472,-0.5948885694661009
12146170,1950.0,1,211790.0,243958,1.26,0.15,9.94,-0.03,-0.01,-0.0,32.47,10.226685,-45.81078565327182,-437.40069270476664,10.020663650677035,0.03162277660168379,-1.2215729239838162,-1.0413349069088769
12186169,1958.0,1,211800.0,244129,1.26,0.14,9.89,-0.03,-0.01,-0.0,32.47,10.266684,-27.36103396351959,-480.1007316211046,9.970922725605691,0.03162277660168379,-0.7266558197515766,-1.1426714301009084
12226169,1936.0,1,211866.0,244468,1.26,0.14,9.94,-0.03,-0.01,-0.0,32.47,10.306684,-64.25032738582394,-409.24843536960304,10.02051894863734,0.03162277660168379,-1.7162161447222948,-0.9745234484007844
12266856,1909.0,1,211996.0,245044,1.25,0.14,9.91,-0.03,-0.01,-0.0,32.35,10.347371,-71.0103729180669,-293.6425918152219,9.989504492215817,0.03162277660168379,-1.8975552876850754,-0.7001655193732196
12305170,2005.0,1,212103.0,245289,1.26,0.14,9.91,-0.03,-0.01,-0.0,32.35,10.385685,1.6488142736107319,-191.185321892471,9.990760731796152,0.03162277660168379,0.05153731396479895,-0.4570120288093867
12345170,1991.0,1,212123.0,245321,1.25,0.16,9.91,-0.03,-0.01,-0.0,32.35,10.425685,13.788557883452349,-123.07385182547864,9.989804802897803,0.03162277660168379,0.37718759124424,-0.2953686265724345
12385170,2000.0,1,212180.0,245429,1.25,0.16,9.91,-0.03,-0.01,-0.0,32.35,10.465685,-1.9300703933859216,-78.46561262049227,9.989804802897803,0.03162277660168379,-0.04446675511733264,-0.1895035271141253
12425170,2000.0,1,212288.0,245716,1.26,0.16,9.959999999999999,-0.03,-0.01,-0.0,32.35,10.505685,22.110808282230533,-33.19216960442025,10.04065734899862,0.03162277660168379,0.6004330927187487,-0.08205975365128927
12465169,2018.0,1,212444.0,246134,1.27,0.15,9.92,-0.03,-0.01,-0.0,32.35,10.545684,20.51758084907674,36.28172936864062,10.002089781640635,0.03162277660168379,0.5576945496283388,0.08281699009871904
12505170,1990.0,1,212490.0,246461,1.26,0.17,9.92,-0.03,-0.01,-0.0,32.35,10.585685,10.907237399561058,145.79177692294715,10.001144934456255,0.03162277660168379,0.2998957764690535,0.34270826316033126
12545170,2017.0,1,212580.0,246778,1.25,0.17,9.91,-0.03,-0.01,-0.0,32.35,10.625685,23.623450073585417,293.1041078506587,9.989969969924834,0.03162277660168379,0.6410099149820992,0.6923126152494915
12585170,1987.0,1,212714.0,246997,1.26,0.14,9.92,-0.03,-0.01,-0.0,32.35,10.665685,8.989991300937412,443.1729575532494,10.000679976881573,0.03162277660168379,0.2484653885057065,1.0484587887479275
12625169,1983.0,1,212818.0,247197,1.26,0.16,9.92,-0.03,-0.01,-0.0,32.35,10.705684,-8.58208367148059,527.005283775509,10.000979951984705,0.03162277660168379,-0.2229079181351333,1.2474112179742507
12665169,1978.0,1,212836.0,247278,1.26,0.16,9.94,-0.03,-0.01,-0.0,32.35,10.745684,3.9848183494835943,472.413290786733,10.020818329857098,0.03162277660168379,0.11420094175486123,1.1178524891298702
12705170,1993.0,1,212736.0,246356,1.26,0.16,9.89,-0.03,-0.01,-0.0,32.35,10.785685,1.7247924354086979,256.5892747885625,9.971223595928437,0.03162277660168379,0.05357543851272032,0.6056549371452576
12745170,1975.0,1,212204.0,244845,1.26,0.17,9.93,-0.03,-0.01,-0.0,32.35,10.825685,5.247466418736688,-60.310973820859445,10.01106387952849,0.03162277660168379,0.14807164834254222,-0.1464186020777215
12785169,2007.0,1,211857.0,244237,1.25,0.16,9.9,-0.03,-0.01,-0.0,32.35,10.865684,18.31761320889125,-357.0375609462535,9.979884768873838,0.03162277660168379,0.4986801177707001,-0.8506156342359218
12825170,1978.0,1,211740.0,244274,1.25,0.14,9.92,-0.03,-0.01,-0.0,32.35,10.905685,8.684092179836222,-520.8039477434942,9.999424983467799,0.03162277660168379,0.2402596028805981,-1.239269056455731
12865169,2002.0,1,211813.0,244431,1.26,0.16,9.93,-0.03,-0.01,-0.0,32.35,10.945684,20.84506999331728,-513.2726496617239,10.010899060523984,0.03162277660168379,0.5664794905674111,-1.2213956403629556
12905214,2009.0,1,211904.0,244676,1.26,0.16,9.91,-0.03,-0.01,-0.0,32.35,10.985729,35.89066800638011,-383.43025474986683,9.991061004718167,0.03162277660168379,0.9700797083526399,-0.9132512639825427
12945170,1991.0,1,212110.0,245003,1.26,0.15,9.89,-0.03,-0.01,-0.0,32.35,11.025685,19.8487967299634,-223.0176925305503,9.971068147395243,0.03162277660168379,0.5397543244614098,-0.5325572003663338
12985170,1984.0,1,212114.0,245065,1.26,0.17,9.93,-0.03,-0.01,-0.0,32.35,11.065685,7.070462619195881,-104.43736666947609,10.01106387952849,0.03162277660168379,0.19697376993905005,-0.25114017483894907
13025175,1966.0,1,212099.0,244965,1.25,0.15,9.9,-0.03,-0.01,-0.0,32.35,11.10569,2.367714822542256,-46.21050579171316,9.979729455250778,0.03162277660168379,0.07082191919370193,-0.11295511020002777
13065170,1984.0,1,212133.0,245159,1.26,0.16,9.92,-0.03,-0.01,-0.0,32.35,11.145685,7.165326926911389,-19.942734006845708,10.000979951984705,0.03162277660168379,0.19951851792585537,-0.05061594770194122
13105209,1975.0,1,212271.0,245432,1.25,0.16,9.94,-0.03,-0.01,-0.0,32.35,11.185724,13.993090517032925,20.256161330294674,10.019565858858355,0.03162277660168379,0.3826742070228642,0.04478481522494031
13145169,1968.0,1,212310.0,245720,1.28,0.15,9.9,-0.03,-0.01,-0.0,32.35,11.225684,-4.6064273252863845,110.75761837612916,9.983531439325466,0.03162277660168379,-0.11626039466879519,0.2595645492389247
13185170,1936.0,1,212391.0,245988,1.27,0.17,9.91,-0.03,-0.01,-0.0,32.35,11.265685,-25.919353533311632,261.5473976707904,9.99249218163317,0.03162277660168379,-0.68798254567477,0.6174216461974031
13225170,1955.0,1,212516.0,246280,1.24,0.17,9.94,-0.03,-0.01,-0.0,32.35,11.305685,-12.024746802740623,445.09954788703584,10.01848790985945,0.03162277660168379,-0.3152578259507865,1.053031008609924
13265169,1961.0,1,212621.0,246517,1.27,0.16,9.93,-0.03,-0.01,-0.0,32.35,11.345684,-2.1427341012713548,594.0548637937512,10.012162603553739,0.03162277660168379,-0.050171488072649886,1.4065345230805328
13305857,1939.0,1,212597.0,246696,1.25,0.15,9.91,-0.03,-0.01,-0.0,32.35,11.386372,-24.369430877710844,621.7247766268991,9.989649643506022,0.03162277660168379,-0.646405659145725,1.4722012726830707
13346169,1936.0,1,212649.0,246275,1.27,0.13,9.91,-0.03,-0.01,-0.0,32.35,11.426684,-26.331708096551615,469.68594738430824,9.991891712783922,0.03162277660168379,-0.6990440130477449,1.1113799072548523
13386170,1953.0,1,212247.0,244700,1.25,0.13,9.94,-0.03,-0.01,-0.0,32.35,11.466685,-9.757957794222794,157.2040696412568,10.01913169890485,0.03162277660168379,-0.2544509017782379,0.3697921276033855
13426169,1946.0,1,211651.0,243447,1.26,0.16,9.92,-0.03,-0.01,-0.0,32.35,11.506684,-13.94409881383638,-210.55062934903333,10.000979951984705,0.03162277660168379,-0.3667447053032855,-0.5029701351248798
13466170,1944.0,1,211336.0,243290,1.25,0.16,9.93,-0.03,-0.01,-0.0,32.35,11.546685,-19.59951372419594,-494.9098439892843,10.009645348362747,0.03162277660168379,-0.5184519812457388,-1.1778166898486047
13506170,1942.0,1,211347.0,243480,1.26,0.14,9.92,-0.03,-0.01,-0.0,32.35,11.586685,-16.220973081049046,-604.3749258781668,10.000679976881573,0.03162277660168379,-0.42782216791519173,-1.4376012495602357
13546170,1943.0,1,211344.0,243639,1.27,0.15,9.92,-0.03,-0.01,-0.0,32.35,11.626685,-20.67152562391234,-542.7515769638646,10.002089781640635,0.03162277660168379,-0.5472088465972024,-1.2913555766075708
13586169,1954.0,1,211529.0,244043,1.25,0.15,9.92,-0.03,-0.01,-0.0,32.35,11.666684,-4.837666488461182,-390.70543651924015,9.999569990754603,0.03162277660168379,-0.12246341674454077,-0.9305168600992774
13626170,1990.0,1,211608.0,244249,1.25,0.17,9.92,-0.03,-0.01,-0.0,32.35,11.706685,27.82404835122782,-242.1625298550079,9.999889999394993,0.03162277660168379,0.7536915364246494,-0.5779920828810486
13666169,1966.0,1,211634.0,244242,1.27,0.16,9.93,-0.03,-0.01,-0.0,32.35,11.746684,4.6258746720061,-148.1570897671143,10.012162603553739,0.03162277660168379,0.13139736499826088,-0.35489663141533495
13706170,1937.0,1,211579.0,244270,1.26,0.16,9.94,-0.03,-0.01,-0.0,32.35,11.786685,-23.477079508760887,-104.15717061405017,10.020818329857098,0.03162277660168379,-0.6224682120242175,-0.2504752083707775
13746170,1962.0,1,211633.0,244472,1.25,0.16,9.92,-0.03,-0.01,-0.0,32.35,11.826685,-1.8782865239838138,-74.93511490063932,9.999724996218646,0.03162277660168379,-0.0430776457612069,-0.18112488453798464
13786170,1942.0,1,211769.0,244716,1.26,0.15,9.95,-0.03,-0.01,-0.0,32.35,11.866685,-17.97425597089002,-24.684672873558654,10.03058323329207,0.03162277660168379,-0.4748542204507281,-0.06186960484458121
13826169,1936.0,1,211826.0,245035,1.27,0.16,9.95,-0.03,-0.01,-0.0,32.35,11.906684,-29.856710378370234,69.84833653358551,10.031998803827678,0.03162277660168379,-0.7936026798019823,0.16247788390054535
13866170,1949.0,1,211912.0,245214,1.25,0.17,9.95,-0.03,-0.01,-0.0,32.35,11.946685,-11.048161294983483,216.864007050797,10.029651040789005,0.03162277660168379,-0.2890607865725928,0.5113781960091403
13906169,1913.0,1,211982.0,245371,1.26,0.16,9.94,-0.03,-0.01,-0.0,32.35,11.986684,-54.74014688241345,400.36974961317367,10.020818329857098,0.03162277660168379,-1.461104256246953,0.9468774229179963
13946170,1919.0,1,212099.0,245680,1.27,0.14,9.9,-0.03,-0.01,-0.0,32.35,12.026685,-42.12041730326076,566.5945605728277,9.982108995598075,0.03162277660168379,-1.122578289906857,1.3413652228918485
13984170,2015.0,1,212237.0,245858,1.28,0.15,9.89,-0.03,-0.01,-0.0,32.35,12.064685,47.3047602263065,631.0818618279666,9.973615192095593,0.03162277660168379,1.2762642881734845,1.4944076805822677
14024197,2018.0,1,212251.0,245686,1.24,0.15,9.93,-0.03,-0.01,-0.0,32.35,12.104712,53.11400576960641,522.7599283029521,10.008246599679687,0.03162277660168379,1.4320980918154589,1.2373360617397071
14064169,2006.0,1,211917.0,244132,1.26,0.16,9.89,-0.03,-0.01,-0.0,32.35,12.144684,40.40155665658075,241.67662788051268,9.971223595928437,0.03162277660168379,1.0910849113392693,0.5702639673100065
14104169,2009.0,1,211322.0,242674,1.25,0.16,9.88,-0.03,-0.01,-0.0,32.35,12.184684,40.66673177757455,-120.45695529437687,9.960045180620417,0.03162277660168379,1.0981982701098147,-0.28915815925799665
14144169,2001.0,1,211032.0,242171,1.25,0.15,9.92,-0.03,-0.01,-0.0,32.35,12.224684,34.351362262096124,-425.0503871042447,9.999569990754603,0.03162277660168379,0.9287876219170141,-1.0120249329210755
14184170,2021.0,1,210993.0,242251,1.27,0.17,9.92,-0.03,-0.01,-0.0,32.35,12.264685,54.958209053272604,-567.9336062030385,10.002409709664967,0.03162277660168379,1.4815690963100414,-1.3511180347874756
14224170,2007.0,1,211058.0,242366,1.28,0.14,9.93,-0.03,-0.01,-0.0,32.35,12.304685,33.75201208986303,-535.1242810262943,10.013136371786814,0.03162277660168379,0.9127099718407014,-1.2732543366254605
14264170,1989.0,1,211125.0,242687,1.27,0.16,9.93,-0.03,-0.01,-0.0,32.35,12.344685,28.777843101067887,-394.93400483840406,10.012162603553739,0.03162277660168379,0.7792772106147772,-0.9405521767504781
14304169,2015.0,1,211309.0,243115,1.25,0.15,9.91,-0.03,-0.01,-0.0,32.35,12.384684,36.39096220847145,-241.7717010833106,9.989649643506022,0.03162277660168379,0.9835001685261368,-0.5770645608016235
14344856,1936.0,1,211351.0,243177,1.25,0.16,9.92,-0.03,-0.01,-0.0,32.33,12.425371,-23.509951446195704,-138.5658251842894,9.999724996218646,0.03162277660168379,-0.6233500062271595,-0.3321344646701787
14385170,1959.0,1,211381.0,243177,1.25,0.16,9.89,-0.03,-0.01,-0.0,32.33,12.465685,-16.635012919503218,-93.85038931324821,9.969964894622247,0.03162277660168379,-0.43892884302553165,-0.22601496409862806
14425170,1984.0,1,211396.0,243367,1.26,0.16,9.91,-0.03,-0.01,-0.0,32.33,12.505685,17.540817722368587,-75.90119621953207,9.991061004718167,0.03162277660168379,0.4778424729484118,-0.1834176066165096
14465170,1943.0,1,211483.0,243658,1.27,0.16,9.9,-0.03,-0.01,-0.0,32.33,12.545685,-24.004517306603688,-41.54002989257679,9.98240952876609,0.03162277660168379,-0.6366168028540865,-0.10187105029558666
14505170,1940.0,1,211607.0,244038,1.28,0.15,9.93,-0.03,-0.01,-0.0,32.33,12.585685,-34.58157408357785,42.14133448694335,10.01328118051221,0.03162277660168379,-0.9203477928092331,0.0967231134896238
14545186,1949.0,1,211726.0,244400,1.27,0.15,9.94,-0.03,-0.01,-0.0,32.33,12.625701,-11.253591543702717,187.01944830733862,10.021925962608185,0.03162277660168379,-0.29457148099967845,0.4405505364562297
14585170,1963.0,1,211869.0,244743,1.26,0.16,9.92,-0.03,-0.01,-0.0,32.33,12.665685,-14.828727201948137,375.73548273897484,10.000979951984705,0.03162277660168379,-0.3904749824109762,0.8884149245276076
14625169,1936.0,1,212005.0,245013,1.27,0.14,9.9,-0.03,-0.01,-0.0,32.33,12.705684,-22.670363202482058,554.8232784079689,9.982108995598075,0.03162277660168379,-0.600827937133027,1.3134293980454983
14665170,1966.0,1,212105.0,245346,1.27,0.17,9.9,-0.03,-0.01,-0.0,32.33,12.745685,-9.726524470544856,643.4325474230754,9.982574818151878,0.03162277660168379,-0.25360769858544263,1.5237185563802604
14705169,1958.0,1,212186.0,245534,1.27,0.15,9.93,-0.03,-0.01,-0.0,32.33,12.785684,-2.868057584506282,570.4842148311366,10.012007790648187,0.03162277660168379,-0.06962838938984547,1.350596222416893
14745202,1946.0,1,212045.0,244424,1.27,0.16,9.91,-0.03,-0.01,-0.0,32.33,12.825717,-24.535603583884583,326.07026738248175,9.992327056296746,0.03162277660168379,-0.6508632646422599,0.7705485156076662
14785169,1937.0,1,211450.0,243018,1.26,0.16,9.9,-0.03,-0.01,-0.0,32.33,12.865684,-27.743287453741658,-14.120524116179785,9.981142219205175,0.03162277660168379,-0.7369098217373298,-0.03679857135785095
14825170,1949.0,1,211098.0,242505,1.24,0.17,9.91,-0.03,-0.01,-0.0,32.33,12.905685,-14.912267489968283,-322.42834416357414,9.988723642187725,0.03162277660168379,-0.39271596202571124,-0.7684803999793997
14865169,1951.0,1,211111.0,242659,1.26,0.15,9.94,-0.03,-0.01,-0.0,32.33,12.945684,-18.130190329330713,-493.62439982192154,10.020663650677035,0.03162277660168379,-0.4790371808735855,-1.1747660499432586
14905170,1947.0,1,211129.0,242725,1.27,0.15,9.92,-0.03,-0.01,-0.0,32.33,12.985685,-10.203873242547475,-503.607511349493,10.002089781640635,0.03162277660168379,-0.2664126444687834,-1.1984581551149778
14945188,1975.0,1,211196.0,243055,1.25,0.15,9.93,-0.03,-0.01,-0.0,32.33,13.025703,2.8418865869832923,-408.9243925395728,10.009490496523787,0.03162277660168379,0.083541641416099,-0.9737544239550477
14985170,1968.0,1,211341.0,243425,1.26,0.15,9.91,-0.03,-0.01,-0.0,32.33,13.065685,14.91288044553705,-294.85875695895464,9.99090586483528,0.03162277660168379,0.40734769724496234,-0.7030517450165891
15025174,1991.0,1,211414.0,243542,1.26,0.16,9.94,-0.03,-0.01,-0.0,32.33,13.105689,19.981081285806976,-217.78693823749768,10.020818329857098,0.03162277660168379,0.5433028757055501,-0.5201434774006872
15065170,1941.0,1,211399.0,243572,1.28,0.14,9.91,-0.03,-0.01,-0.0,32.33,13.145685,-12.792949918331624,-182.26748608763154,9.993302757347042,0.03162277660168379,-0.3358649792514816,-0.43584805571253626
15105169,1936.0,1,211415.0,243785,1.27,0.17,9.9,-0.03,-0.01,-0.0,32.33,13.185684,-29.092717620497318,-158.26746203839136,9.982574818151878,0.03162277660168379,-0.77310846992105,-0.3788907541409779
15145170,1961.0,1,211557.0,244172,1.26,0.17,9.92,-0.03,-0.01,0.0,32.33,13.225685,2.8088669360919867,-112.89079708539711,10.001144934456255,0.03162277660168379,0.08265588477954972,-0.27120201246569264
15184170,1984.0,1,211677.0,244600,1.28,0.17,9.93,-0.03,-0.01,-0.0,32.33,13.264685,26.874274576897292,-28.506181965224126,10.013600750978641,0.03162277660168379,0.7282137254507228,-0.07093888099804962
15224170,1998.0,1,211828.0,244962,1.26,0.17,9.91,-0.03,-0.01,-0.0,32.33,13.304685,35.083574152036725,97.50042290030783,9.991226150978667,0.03162277660168379,0.9484293056831485,0.22810232740280276
15264169,1989.0,1,211915.0,245206,1.26,0.16,9.92,-0.03,-0.01,-0.0,32.33,13.344684,38.512779142941326,254.45248057070415,10.000979951984705,0.03162277660168379,1.040418197049092,0.6005838575324531
15304170,1995.0,1,211984.0,245433,1.27,0.18,9.92,-0.03,-0.01,-0.0,32.33,13.384685,29.659684978520573,409.56907138502044,10.00258466597509,0.03162277660168379,0.8029327391941684,0.9687094237250733
15344856,1962.0,1,212118.0,245696,1.28,0.17,9.91,-0.03,-0.01,-0.0,32.19,13.425371,14.900993135631634,501.67678655326637,9.993768058145037,0.03162277660168379,0.407028818536217,1.1873011592642333
15385170,1950.0,1,212192.0,245930,1.26,0.16,9.9,-0.03,-0.01,-0.0,32.19,13.465685,-14.511073882818526,462.2659677135914,9.981142219205175,0.03162277660168379,-0.38195388882136927,1.0937706740768867
15425169,1920.0,1,212162.0,244959,1.27,0.14,9.94,-0.03,-0.01,-0.0,32.19,13.505684,-27.07158880381613,264.64086083425593,10.021781278794702,0.03162277660168379,-0.7188914138840417,0.6247631102701272
15465170,1973.0,1,211588.0,243440,1.26,0.16,9.94,-0.03,-0.01,-0.0,32.19,13.545685,11.420513087278541,-36.93553989129778,10.020818329857098,0.03162277660168379,0.31366446676416715,-0.09094358934604745
15505169,1967.0,1,211230.0,242811,1.27,0.16,9.89,-0.03,-0.01,-0.0,32.19,13.585684,18.81387532680755,-322.0755847361656,9.972492165953303,0.03162277660168379,0.5119924167365293,-0.7676432247729125
15545170,1955.0,1,211208.0,243014,1.26,0.14,9.93,-0.03,-0.01,-0.0,32.19,13.625685,-4.6358770046673285,-473.11717481578654,10.010599382654368,0.03162277660168379,-0.11705038633290417,-1.126097923749976
15585169,1953.0,1,211279.0,243204,1.27,0.14,9.91,-0.03,-0.01,0.0,32.19,13.665684,5.267273145918303,-446.7546646546979,9.992026821421167,0.03162277660168379,0.14860296649933277,-1.0635339263828176
15625170,1951.0,1,211402.0,243632,1.26,0.15,9.91,-0.03,-0.01,-0.0,32.19,13.705685,-8.981247451725906,-293.25920874599944,9.99090586483528,0.03162277660168379,-0.2336155409560483,-0.6992556675728074
15665169,1935.0,1,211567.0,243855,1.27,0.15,9.92,-0.03,-0.01,-0.0,32.19,13.745684,-11.808054534838838,-113.48272136867719,10.002089781640635,0.03162277660168379,-0.3094450263238389,-0.27260677813764117
15705170,1982.0,1,211706.0,243937,1.27,0.15,9.95,-0.03,-0.01,0.0,32.19,13.785685,22.317598871847938,8.632611877745628,10.03184429703731,0.03162277660168379,0.6059802784758758,0.017199592387560757
15745170,1953.0,1,211636.0,243835,1.28,0.16,9.93,-0.03,-0.01,-0.0,32.19,13.825685,4.100418887976634,50.089299497572355,10.013435973730497,0.03162277660168379,0.11730194195913178,0.11558537125494145
15785170,1939.0,1,211639.0,243966,1.25,0.17,9.93,-0.03,-0.01,-0.0,32.19,13.865685,-17.742451750922054,47.444261439034044,10.00981018801056,0.03162277660168379,-0.46863604064947467,0.10930811794638963
15825170,1939.0,1,211705.0,244263,1.26,0.14,9.89,-0.03,-0.01,-0.0,32.19,13.905685,-14.46797571637925,62.0969727408795,9.970922725605691,0.03162277660168379,-0.3807977746312963,0.14408220378680012
15865170,1926.0,1,211807.0,244517,1.27,0.15,9.91,-0.03,-0.01,-0.0,32.19,13.945685,-28.246480566151643,139.83231002877997,9.992171936070756,0.03162277660168379,-0.7504080455753169,0.3285651459534322
15905170,1931.0,1,211897.0,244785,1.27,0.17,9.92,-0.03,-0.01,-0.0,32.19,13.985685,-25.327973267489643,284.19333402695713,10.002409709664967,0.03162277660168379,-0.6721186894244293,0.6711654017770706
15945170,1953.0,1,211958.0,245040,1.24,0.15,9.93,-0.03,-0.01,-0.0,32.19,14.025685,-2.7651439851576924,449.1453948192491,10.008246599679687,0.03162277660168379,-0.06686771805766643,1.0626326874814802
15985170,1970.0,1,212009.0,245212,1.26,0.17,9.92,-0.03,-0.01,0.0,32.19,14.065685,14.039619514364192,552.790729619003,10.001144934456255,0.03162277660168379,0.3839223537193214,1.3086057156152422
16025174,1977.0,1,212060.0,245384,1.26,0.15,9.93,-0.03,-0.01,-0.0,32.19,14.105689,16.70353411216541,514.655671726951,10.010744228078151,0.03162277660168379,0.45538222596237576,1.2181028899368151
16065169,1959.0,1,211981.0,244646,1.27,0.14,9.92,-0.03,-0.01,-0.0,32.19,14.145684,3.5838634893645955,306.73275853402635,10.001944810885531,0.03162277660168379,0.10344527297216648,0.724656381463783
16105170,1941.0,1,211482.0,242947,1.25,0.16,9.89,-0.03,-0.01,-0.0,32.19,14.185685,-22.787899411786903,-13.840773159356239,9.969964894622247,0.03162277660168379,-0.6039808619707037,-0.036134661205926115
16145169,1938.0,1,210996.0,242050,1.27,0.16,9.93,-0.03,-0.01,-0.0,32.19,14.225684,-20.243328531586183,-324.5588872381908,10.012162603553739,0.03162277660168379,-0.5357224012217647,-0.7735366442632872
16184172,1983.0,1,210887.0,242044,1.27,0.15,9.91,-0.03,-0.01,-0.0,32.19,14.264687,18.60349893956219,-507.1830620856601,9.992171936070756,0.03162277660168379,0.5063490414692,-1.2069437183438496
16224170,1968.0,1,210934.0,242231,1.27,0.15,9.93,-0.03,-0.01,-0.0,32.19,14.304685,4.435075572962763,-518.4736414982293,10.012007790648187,0.03162277660168379,0.12627915315581645,-1.2337387305155019
16264170,1968.0,1,210994.0,242600,1.28,0.16,9.91,-0.03,-0.01,-0.0,32.19,14.344685,2.6060404756551425,-407.5337322860236,9.993602953890054,0.03162277660168379,0.07721503732809949,-0.9704540832852855
16304169,2022.0,1,211149.0,243022,1.27,0.17,9.91,-0.03,-0.01,-0.0,32.19,14.384684,55.25434781604779,-269.5587424079148,9.99249218163317,0.03162277660168379,1.4895130589924779,-0.6430092819093901
16344170,1995.0,1,211199.0,243218,1.25,0.14,9.94,-0.03,-0.01,-0.0,32.19,14.424685,24.602040276349747,-176.95744973223444,10.019266440214073,0.03162277660168379,0.66726073057715,-0.42324617908817236
16384884,1950.0,1,211096.0,243224,1.27,0.16,9.93,-0.03,-0.01,-0.0,32.21,14.465399,-16.784663625495103,-140.62930034833903,10.012162603553739,0.03162277660168379,-0.4429432436148335,-0.3370315421465622
16425170,1974.0,1,211108.0,243378,1.27,0.17,9.95,-0.03,-0.01,-0.0,32.21,14.505685,-2.8048254239341457,-121.74604653878556,10.032163276183258,0.03162277660168379,-0.06793217806240023,-0.2922174544741348
16465169,1942.0,1,211205.0,243692,1.27,0.15,9.89,-0.03,-0.01,-0.0,32.21,14.545684,-26.40736663792881,-71.71574824629448,9.97233673719455,0.03162277660168379,-0.701073563734307,-0.17348462396888145
16505169,1947.0,1,211349.0,244009,1.26,0.18,9.92,-0.03,-0.01,0.0,32.21,14.585684,-32.59394676029787,36.48013339753862,10.001319912891498,0.03162277660168379,-0.867029418899789,0.0832878462146867
16545169,1968.0,1,211503.0,244407,1.25,0.15,9.94,-0.03,-0.01,-0.0,32.21,14.625684,-6.399076880854909,201.03185251478462,10.019411160342706,0.03162277660168379,-0.16434846337911724,0.4738050336412583
16585170,1963.0,1,211577.0,244617,1.26,0.14,9.93,-0.03,-0.01,-0.0,32.21,14.665685,-15.7071265035982,395.3124990963848,10.010599382654368,0.03162277660168379,-0.4140381634251543,0.934875462327595
16625170,1963.0,1,211683.0,244837,1.25,0.16,9.88,-0.03,-0.01,-0.0,32.21,14.705685,-19.0306594063328,567.9268114783434,9.960045180620417,0.03162277660168379,-0.5031923866202345,1.3445269454150741
16665170,1969.0,1,211720.0,245015,1.24,0.16,9.93,-0.03,-0.01,-0.0,32.21,14.745685,-9.049856310030497,645.8184738918525,10.008401470764449,0.03162277660168379,-0.2354559829331427,1.5293808812650556
16705169,1957.0,1,211803.0,245081,1.26,0.13,9.95,-0.03,-0.01,-0.0,32.21,14.785684,-29.908998645192813,560.4629180314869,10.03030408312729,0.03162277660168379,-0.795005319687674,1.3268134952502588
16745169,1943.0,1,211652.0,244005,1.27,0.17,9.89,-0.03,-0.01,-0.0,32.21,14.825684,-38.20304694816459,295.8726030152594,9.97265761971201,0.03162277660168379,-1.0174942960975368,0.6988828592486661
16785170,1965.0,1,211006.0,242205,1.26,0.13,9.93,-0.03,-0.01,-0.0,32.21,14.865685,-21.43065107720647,-78.80832395710866,10.010464524686155,0.03162277660168379,-0.5675724903692754,-0.19031685600544654
16825170,1968.0,1,210551.0,241382,1.26,0.16,9.93,-0.03,-0.01,-0.0,32.21,14.905685,-20.7665106759309,-432.2647758640099,10.010899060523984,0.03162277660168379,-0.5497568335663975,-1.0291462539414775
16865169,1983.0,1,210469.0,241400,1.27,0.15,9.91,-0.03,-0.01,-0.0,32.21,14.945684,0.945417104179266,-643.8495055565562,9.992171936070756,0.03162277660168379,0.032668589004476715,-1.5312830531509167
16903170,2037.0,1,210539.0,241558,1.27,0.13,9.93,-0.03,-0.01,-0.0,32.21,14.983685,40.160934018034766,-671.416230000496,10.011728122557065,0.03162277660168379,1.0846301762574933,-1.5967049141570615
16943170,2034.0,1,210602.0,241826,1.29,0.17,9.94,-0.03,-0.01,-0.0,32.21,15.023685,54.996108018724144,-561.9828308404285,10.024799249860317,0.03162277660168379,1.4825857412248395,-1.3369955444842416
16983170,2047.0,1,210739.0,242235,1.25,0.16,9.92,-0.03,-0.01,-0.0,32.21,15.063685,46.96203251875388,-404.26446831171137,9.999724996218646,0.03162277660168379,1.2670705706961751,-0.9626954054723009
17023186,2005.0,1,210875.0,242465,1.25,0.16,9.93,-0.03,-0.01,-0.0,32.21,15.103701,24.11781048682733,-267.3383403303509,10.009645348362747,0.03162277660168379,0.6542712004607889,-0.6377397825754539
17063170,2021.0,1,210959.0,242551,1.26,0.17,9.9,-0.03,-0.01,-0.0,32.21,15.143685,23.441597697396194,-170.04271790904647,9.981307529577476,0.03162277660168379,0.6361317001998746,-0.40683600945952
17103169,2006.0,1,211034.0,242633,1.26,0.18,9.89,-0.03,-0.01,-0.0,32.21,15.183684,20.69927110805322,-91.76719841810878,9.97156457131979,0.03162277660168379,0.562568415594231,-0.2210710968840726
17143170,1999.0,1,211148.0,243002,1.27,0.16,9.93,-0.03,-0.01,-0.0,32.21,15.223685,5.0008181938319956,-2.6942614096131834,10.012162603553739,0.03162277660168379,0.14145527608525837,-0.009681553079930965
17183169,2007.0,1,211363.0,243377,1.27,0.16,9.92,-0.03,-0.01,-0.0,32.21,15.263684,19.843299664074916,114.95289458299918,10.002244748055308,0.03162277660168379,0.539606864919566,0.26952085643263535
17223170,2020.0,1,211511.0,243910,1.26,0.16,9.91,-0.03,-0.01,-0.0,32.21,15.303685,26.902398423554946,264.39882735688036,9.991061004718167,0.03162277660168379,0.7289681514712859,0.6241887119389835
17263170,2009.0,1,211703.0,244398,1.27,0.15,9.92,-0.03,-0.01,-0.0,32.21,15.343685,23.543936262748574,437.8952163331409,10.002089781640635,0.03162277660168379,0.6388769461667141,1.0359335555367601
17303170,2017.0,1,211816.0,244756,1.27,0.16,9.91,-0.03,-0.01,-0.0,32.21,15.383685,23.860797505500194,611.08662324994,9.992327056296746,0.03162277660168379,0.647376792199502,1.446954610062533
17343170,2002.0,1,211918.0,245121,1.27,0.16,9.91,-0.03,-0.01,-0.0,32.21,15.423685,18.229299604096543,732.6096085764646,9.992327056296746,0.03162277660168379,0.49631109328276707,1.735355209533518
17383170,2007.0,1,212032.0,245384,1.26,0.15,9.959999999999999,-0.03,-0.01,-0.0,32.21,15.463685,16.310720254788507,731.9075514813851,10.04050297544899,0.03162277660168379,0.44484494068805647,1.7336890746328675
17423856,1968.0,1,212036.0,245084,1.24,0.15,9.92,-0.03,-0.01,-0.0,32.09,15.504371,-16.1112391439635,558.4946483165793,9.998324859695249,0.03162277660168379,-0.4248785400934391,1.3221423611090533
17464169,1953.0,1,211711.0,243586,1.25,0.16,9.92,-0.03,-0.01,-0.0,32.09,15.544684,-33.256109080489615,230.3892824622057,9.999724996218646,0.03162277660168379,-0.8847920134079323,0.5434766301134335
17504169,1978.0,1,211108.0,242326,1.26,0.15,9.93,-0.03,-0.01,-0.0,32.09,15.584684,-6.256471539552985,-153.89763795046213,10.010744228078151,0.03162277660168379,-0.16052305565807998,-0.36852020668318375
17544170,1968.0,1,210908.0,242060,1.26,0.16,9.94,-0.03,-0.01,-0.0,32.09,15.624685,-14.864841309285879,-462.5288180310886,10.020818329857098,0.03162277660168379,-0.3914437482635516,-1.1009694393244618
17584169,1961.0,1,210912.0,242180,1.25,0.17,9.91,-0.03,-0.01,-0.0,32.09,15.664684,-21.279297144735878,-606.2812455184161,9.989969969924834,0.03162277660168379,-0.5635124004974906,-1.4421253626369017
17624170,1975.0,1,210968.0,242353,1.26,0.17,9.92,-0.03,-0.01,-0.0,32.09,15.704685,-5.970300651079825,-584.6480978928881,10.001144934456255,0.03162277660168379,-0.1528464825626615,-1.39078517603037
17664169,1953.0,1,211101.0,242887,1.28,0.15,9.92,-0.03,-0.01,-0.0,32.09,15.744684,-26.394448818471304,-469.84970980358906,10.003364434029184,0.03162277660168379,-0.7007270414663431,-1.1183435152672003
17704170,1947.0,1,211274.0,243242,1.26,0.19,9.93,-0.03,-0.01,-0.0,32.09,15.784685,-32.121978755578795,-348.42802498993007,10.011423475210705,0.03162277660168379,-0.8543688128323602,-0.830183324049507
17744169,1966.0,1,211380.0,243530,1.25,0.13,9.93,-0.03,-0.01,-0.0,32.09,15.824684,-10.67715711438081,-268.2623161159611,10.009210758096765,0.03162277660168379,-0.2791085488509373,-0.6399325790225676
17784169,1961.0,1,211385.0,243801,1.25,0.16,9.92,-0.03,-0.01,-0.0,32.09,15.864684,-16.426453390280393,-225.05627049012386,9.999724996218646,0.03162277660168379,-0.43333420522233934,-0.5373951913359403
17824169,1935.0,1,211525.0,244065,1.25,0.14,9.9,-0.03,-0.01,-0.0,32.09,15.904684,-38.54956929214258,-186.18456961787751,9.979584159673188,0.03162277660168379,-1.0267898052142592,-0.4451441508937521
17864170,1936.0,1,211630.0,244483,1.25,0.15,9.92,-0.03,-0.01,-0.0,32.09,15.944685,-40.53601715722536,-123.19594018307356,9.999569990754603,0.03162277660168379,-1.0800765399967742,-0.29565836892384395
17904169,1962.0,1,211806.0,244952,1.26,0.15,9.93,-0.03,-0.01,-0.0,32.09,15.984684,-8.192514406049671,-26.31516140976756,10.010744228078151,0.03162277660168379,-0.21245766948208275,-0.06573911043654579
17944170,1983.0,1,211990.0,245383,1.24,0.15,9.92,-0.03,-0.01,-0.0,32.09,16.024685,7.431057511553964,101.45686577882684,9.998324859695249,0.03162277660168379,0.2066467770845026,0.2374918309183039
17984169,1951.0,1,212141.0,245745,1.27,0.15,9.93,-0.03,-0.01,-0.0,32.09,16.064684,-17.032541335029283,251.9325764627262,10.012007790648187,0.03162277660168379,-0.4495925969649123,0.594603574432943
18024213,1966.0,1,212267.0,246048,1.26,0.15,9.92,-0.03,-0.01,-0.0,32.09,16.104728,-7.391765801016643,405.32340990403014,10.000824965971558,0.03162277660168379,-0.1909774789903551,0.9586335412656485
18064169,1995.0,1,212372.0,246388,1.27,0.17,9.94,-0.03,-0.01,-0.0,32.09,16.144684,27.49849372559912,517.6124133017947,10.022245257426102,0.03162277660168379,0.7449584892110621,1.2251198838032389
18104170,1987.0,1,212510.0,246707,1.25,0.17,9.95,-0.03,-0.01,-0.0,32.09,16.184685,16.470049813317967,526.8548741721427,10.029651040789005,0.03162277660168379,0.4491189778161443,1.2470542631178463
18144169,1959.0,1,212569.0,246472,1.27,0.16,9.92,-0.03,-0.01,-0.0,32.09,16.224684,-8.490389744266242,390.421112686751,10.002244748055308,0.03162277660168379,-0.2204482160374724,0.923267133508218
18184170,1971.0,1,212233.0,245134,1.25,0.16,9.9,-0.03,-0.01,-0.0,32.09,16.264685,2.800254863359463,128.95066234466313,9.979884768873838,0.03162277660168379,0.08242486475446256,0.3027406181334564
18224196,1984.0,1,211793.0,244283,1.24,0.16,9.94,-0.03,-0.01,-0.0,32.09,16.304711,16.867470393624636,-166.94706733272037,10.018323212993279,0.03162277660168379,0.45977983906106407,-0.39948935417808257
18264170,1967.0,1,211623.0,244223,1.25,0.16,9.94,-0.03,-0.01,-0.0,32.09,16.344685,0.29566105070373505,-384.48640378791765,10.019565858858355,0.03162277660168379,0.015238794292275004,-0.9157577364402933
18304169,1958.0,1,211725.0,244369,1.25,0.16,9.9,-0.03,-0.01,-0.0,32.09,16.384684,-8.661293827195435,-456.8935218937353,9.979884768873838,0.03162277660168379,-0.22503274136047516,-1.0875956501615118
18344170,1974.0,1,211813.0,244569,1.24,0.13,9.94,-0.03,-0.01,-0.0,32.09,16.424685,8.597654066520105,-396.95831126264187,10.017888999185407,0.03162277660168379,0.23794088870725386,-0.9453562982481066
18384169,1975.0,1,211920.0,244980,1.24,0.13,9.94,-0.03,-0.01,-0.0,32.09,16.464684,8.173969029409784,-273.20943553908006,10.017888999185407,0.03162277660168379,0.2265754798280851,-0.6516731744617635
18424856,1953.0,1,212030.0,245304,1.24,0.15,9.92,-0.03,-0.01,-0.0,32.11,16.505371,-10.701260082790537,-155.602446556406,9.998324859695249,0.03162277660168379,-0.27975511426435523,-0.3725660900411051
18463169,1966.0,1,212127.0,245340,1.27,0.16,9.92,-0.03,-0.01,-0.0,32.11,16.543684,-1.7944548099293125,-75.84945745480343,10.002244748055308,0.03162277660168379,-0.040828848603371756,-0.18329481922181604
18503170,1982.0,1,212140.0,245451,1.25,0.13,9.9,-0.03,-0.01,-0.0,32.11,16.583685,20.043597654509664,-25.068026880922805,9.979448882578637,0.03162277660168379,0.5449798858185174,-0.06277938767485286
18543169,1987.0,1,212235.0,245689,1.26,0.15,9.89,-0.03,-0.01,-0.0,32.11,16.623684,18.318997643298598,22.868572635157413,9.971068147395243,0.03162277660168379,0.49871725541240963,0.05098463811739805
18583170,1987.0,1,212360.0,245997,1.26,0.15,9.93,-0.03,-0.01,-0.0,32.11,16.663685,25.520542816728682,88.89087409257912,10.010744228078151,0.03162277660168379,0.6918996864372873,0.20766998671719503
18623169,2005.0,1,212481.0,246248,1.26,0.14,9.91,-0.03,-0.01,-0.0,32.11,16.703684,36.916128371184115,181.84254537680556,9.990760731796152,0.03162277660168379,0.9975878224339602,0.428264614541481
18663170,1984.0,1,212554.0,246471,1.26,0.15,9.92,-0.03,-0.01,-0.0,32.11,16.743685,20.70522953898084,300.1022716203024,10.000824965971558,0.03162277660168379,0.562728251316145,0.7089207871186931
18703169,1985.0,1,212628.0,246703,1.25,0.17,9.93,-0.03,-0.01,-0.0,32.11,16.783684,18.984925811856208,427.76280442590996,10.00981018801056,0.03162277660168379,0.516580869316345,1.0118871279388812
18743170,1985.0,1,212694.0,246952,1.26,0.14,9.91,-0.03,-0.01,0.0,32.11,16.823685,18.833393800442003,526.2336299410707,9.990760731796152,0.03162277660168379,0.5125160024526212,1.2455799148027713
18783169,1967.0,1,212754.0,247076,1.26,0.15,9.93,-0.03,-0.01,-0.0,32.11,16.863684,2.259184624657901,539.2375966116208,10.010744228078151,0.03162277660168379,0.06791058184012054,1.2764411693482418
18823170,1983.0,1,212782.0,246989,1.26,0.12,9.92,-0.03,-0.01,-0.0,32.11,16.903685,15.18710473106181,423.22381473531624,10.00041999118037,0.03162277660168379,0.41470380108767435,1.0011151135397738
18863169,1983.0,1,212480.0,245700,1.27,0.17,9.91,-0.03,-0.01,-0.0,32.11,16.943684,17.2878665062122,186.52022128937537,9.99249218163317,0.03162277660168379,0.47105702209154865,0.4393657616511519
18903170,1955.0,1,211994.0,244733,1.27,0.15,9.91,-0.03,-0.01,-0.0,32.11,16.983685,-13.328497715489654,-99.27156617273229,9.992171936070756,0.03162277660168379,-0.35023112191857386,-0.23888060142569417
18943169,1946.0,1,211798.0,244512,1.26,0.14,9.92,-0.03,-0.01,-0.0,32.11,17.023684,-21.662555332131102,-334.38092535141516,10.000679976881573,0.03162277660168379,-0.5737933536218787,-0.7968464870248811
18983169,1961.0,1,211775.0,244582,1.27,0.16,9.91,-0.03,-0.01,-0.0,32.11,17.063684,-8.517199223835089,-448.98401432677844,9.992327056296746,0.03162277660168379,-0.22116738398169772,-1.0688246603137768
19023186,1971.0,1,211768.0,244495,1.27,0.16,9.93,-0.03,-0.01,-0.0,32.11,17.103701,1.6678291295192895,-438.90285760217904,10.012162603553739,0.03162277660168379,0.052047390066738246,-1.0448998724646024
19063170,1972.0,1,211799.0,244803,1.25,0.15,9.92,-0.03,-0.01,-0.0,32.11,17.143685,0.3289551023678867,-354.72663215636794,9.999569990754603,0.03162277660168379,0.016131911766963457,-0.8451312952316834
19103170,1964.0,1,211889.0,245017,1.26,0.16,9.93,-0.03,-0.01,-0.0,32.11,17.183685,-7.554958169329007,-259.80140188771963,10.010899060523984,0.03162277660168379,-0.19535513651746522,-0.6198529806738196
19143170,1959.0,1,211913.0,245026,1.26,0.15,9.92,-0.03,-0.01,0.0,32.11,17.223685,-14.359946360399197,-191.89637417633634,10.000824965971558,0.03162277660168379,-0.3778998724300749,-0.45869951125866143
19183170,1958.0,1,211932.0,245132,1.27,0.16,9.95,-0.03,-0.01,-0.0,32.11,17.263685,-17.76648057776435,-151.71283147838133,10.031998803827678,0.03162277660168379,-0.469280617205239,-0.36333518349943666
19223170,1961.0,1,211935.0,245278,1.26,0.16,9.94,-0.03,-0.01,-0.0,32.11,17.303685,-12.810480717774233,-116.46983826080793,10.020818329857098,0.03162277660168379,-0.33633524533640846,-0.27969585926962337
19263170,1971.0,1,211986.0,245594,1.27,0.15,9.92,-0.03,-0.01,-0.0,32.11,17.343685,-10.647237742100797,-60.67648981040867,10.002089781640635,0.03162277660168379,-0.2783059576107801,-0.1472860513937417
19303170,1968.0,1,212132.0,245858,1.27,0.16,9.94,-0.03,-0.01,-0.0,32.11,17.383685,-6.407837832492096,31.392044443290178,10.022080622305928,0.03162277660168379,-0.16458347710111784,0.07121269927335609
19343169,1987.0,1,212208.0,246202,1.28,0.16,9.91,-0.03,-0.01,-0.0,32.11,17.423684,0.014115275197114252,162.3673592662898,9.993602953890054,0.03162277660168379,0.00768629048270052,0.38204574216939313
19383170,1971.0,1,212287.0,246418,1.27,0.15,9.92,-0.03,-0.01,-0.0,32.11,17.463685,-6.349613284131406,318.1888440068398,10.002089781640635,0.03162277660168379,-0.16302159565390525,0.7518441756828994
19423170,1981.0,1,212412.0,246605,1.27,0.15,9.91,-0.03,-0.01,-0.0,32.11,17.503685,-9.063143089048713,460.7972288604076,9.992171936070756,0.03162277660168379,-0.23581240259162092,1.0902850358283989
19463856,1972.0,1,212421.0,246891,1.27,0.15,9.93,-0.03,-0.01,-0.0,32.19,17.544371,-11.106850118256038,528.9072415198978,10.012007790648187,0.03162277660168379,-0.29063512225760824,1.2519249793188747
19504169,1972.0,1,212424.0,247029,1.25,0.15,9.91,-0.03,-0.01,-0.0,32.19,17.584684,-19.325903153047207,461.90975363888924,9.989649643506022,0.03162277660168379,-0.511112340374828,1.0929253002374597
19544170,1966.0,1,212324.0,246091,1.24,0.17,9.91,-0.03,-0.01,-0.0,32.19,17.624685,-24.286085189065613,242.0039521192221,9.988723642187725,0.03162277660168379,-0.6441698996857508,0.5710407792555947
19584170,1956.0,1,211816.0,244545,1.27,0.17,9.91,-0.03,-0.01,-0.0,32.19,17.664685,-36.035270719547135,-76.83422859286694,9.99249218163317,0.03162277660168379,-0.9593434032436914,-0.1856318963253461
19624170,1958.0,1,211372.0,243755,1.28,0.16,9.91,-0.03,-0.01,-0.0,32.19,17.704685,-39.73616113117124,-385.3258302348795,9.993602953890054,0.03162277660168379,-1.0586202930578361,-0.9177498788310116
19664173,1967.0,1,211294.0,243726,1.26,0.14,9.94,-0.03,-0.01,-0.0,32.19,17.744688,-25.494597888757266,-577.8877498046606,10.02051894863734,0.03162277660168379,-0.6765884176049647,-1.374741392740825
19704170,1991.0,1,211285.0,243809,1.27,0.16,9.92,-0.03,-0.01,-0.0,32.19,17.784685,-14.184062373419454,-611.6416086237153,10.002244748055308,0.03162277660168379,-0.3731817605020328,-1.4548466756362215
19744169,1975.0,1,211353.0,244039,1.25,0.16,9.94,-0.03,-0.01,-0.0,32.19,17.824684,-17.738397663550092,-521.1393584053864,10.019565858858355,0.03162277660168379,-0.46852728920305003,-1.2400650592505829
19784170,1978.0,1,211484.0,244401,1.25,0.16,9.959999999999999,-0.03,-0.01,-0.0,32.19,17.864685,-33.81454378811523,-382.76496674012174,10.039407353026371,0.03162277660168379,-0.8997721005683661,-0.9116723901561978
19824169,1983.0,1,211557.0,244571,1.25,0.14,9.91,-0.03,-0.01,-0.0,32.19,17.904684,-10.761385814040782,-261.87905293458914,9.989504492215817,0.03162277660168379,-0.2813679952017581,-0.6247837006178588
19862175,2066.0,1,211634.0,244616,1.25,0.15,9.9,-0.03,-0.01,-0.0,32.19,17.94269,49.873746443812834,-181.73090961994117,9.979729455250778,0.03162277660168379,1.3451776936740572,-0.43457464250162703
19902169,2046.0,1,211629.0,244684,1.25,0.14,9.91,-0.03,-0.01,-0.0,32.19,17.982684,49.63801837026499,-128.03230933260684,9.989504492215817,0.03162277660168379,1.3388542559656058,-0.30713612976259064
19942170,2032.0,1,211720.0,244915,1.26,0.14,9.93,-0.03,-0.01,-0.0,32.19,18.022685,14.134594899649686,-73.55441513525335,10.010599382654368,0.03162277660168379,0.3864700813770842,-0.17784818228320676
19982170,2027.0,1,211826.0,245252,1.26,0.15,9.93,-0.03,-0.01,-0.0,32.19,18.062685,27.371566183216462,2.5879261608930935,10.010744228078151,0.03162277660168379,0.7415536405833035,0.0028542322923502937
20022170,2058.0,1,211955.0,245604,1.27,0.17,9.93,-0.03,-0.01,-0.0,32.19,18.102685,39.82318714366709,111.92887599554618,10.012327401758295,0.03162277660168379,1.07557007030938,0.26234419951386817
20062169,2031.0,1,212055.0,245885,1.26,0.16,9.92,-0.03,-0.01,-0.0,32.19,18.142684,28.756643950664554,259.5149335352282,10.000979951984705,0.03162277660168379,0.7787085405152425,0.6125981646681727
20102170,2053.0,1,212229.0,246088,1.24,0.16,9.92,-0.03,-0.01,-0.0,32.19,18.182685,35.154405423143224,436.7857677898504,9.998479884462437,0.03162277660168379,0.9503293641866236,1.0333005917060292
20142170,2034.0,1,212298.0,246247,1.27,0.15,9.92,-0.03,-0.01,-0.0,32.19,18.222685,30.39789233370632,605.5576909280186,10.002089781640635,0.03162277660168379,0.822735252132833,1.4338332454763012
20182170,2032.0,1,212434.0,246524,1.25,0.16,9.9,-0.03,-0.01,-0.0,32.19,18.262685,14.851184976135732,695.1550232017397,9.979884768873838,0.03162277660168379,0.40569270786766304,1.6464672938360578
20222169,2023.0,1,212489.0,246635,1.25,0.15,9.95,-0.03,-0.01,-0.0,32.19,18.302684,19.299526637205595,633.0090889045483,10.029331981742352,0.03162277660168379,0.5250200793441674,1.4989814115740585
20262170,2030.0,1,212345.0,245634,1.28,0.16,9.91,-0.03,-0.01,-0.0,32.19,18.342685,14.55682995708878,398.206638269249,9.993602953890054,0.03162277660168379,0.39779659435390446,0.941743887014199
20302169,2017.0,1,211789.0,244199,1.24,0.15,9.92,-0.03,-0.01,-0.0,32.19,18.382684,12.959609590165801,55.15882244379175,9.998324859695249,0.03162277660168379,0.35495094027080104,0.12761645700216154
20342170,2031.0,1,211412.0,243585,1.27,0.13,9.959999999999999,-0.03,-0.01,-0.0,32.19,18.422685,20.226227076676423,-270.24313153619534,10.041483954077703,0.03162277660168379,0.5498789449650198,-0.6446334868640099
20382170,2022.0,1,211338.0,243609,1.27,0.15,9.89,-0.03,-0.01,-0.0,32.19,18.462685,15.595337729392414,-462.5856368439067,9.97233673719455,0.03162277660168379,0.4256547069200845,-1.1011042827833675
20422170,2032.0,1,211376.0,243788,1.25,0.14,9.93,-0.03,-0.01,-0.0,32.19,18.502685,29.155638103234825,-483.20361962603926,10.009345632957231,0.03162277660168379,0.78941161305065,-1.150035261381962
20462169,2032.0,1,211454.0,244081,1.27,0.14,9.91,-0.03,-0.01,-0.0,32.19,18.542684,22.655487988529913,-381.1740551484936,9.992026821421167,0.03162277660168379,0.6150442000934614,-0.9078968093021061
20502856,1979.0,1,211615.0,244495,1.27,0.15,9.92,-0.03,-0.01,-0.0,32.17,18.583371,-16.07363711016002,-246.74588670169692,10.002089781640635,0.03162277660168379,-0.4238698604105794,-0.5888693902367135
20543169,1985.0,1,211707.0,244608,1.27,0.17,9.92,-0.03,-0.01,0.0,32.17,18.623684,-24.0718472356583,-148.50279590624584,10.002409709664967,0.03162277660168379,-0.6384229373797008,-0.3557170676274511
20583170,1968.0,1,211737.0,244668,1.25,0.16,9.92,-0.03,-0.01,0.0,32.17,18.663685,-22.704607502163395,-100.21161671306487,9.999724996218646,0.03162277660168379,-0.6017465451403186,-0.2411115467784312
20623169,1981.0,1,211771.0,244870,1.27,0.13,9.94,-0.03,-0.01,-0.0,32.17,18.703684,-23.649011084350487,-73.02240847611772,10.021646571297552,0.03162277660168379,-0.6270802999779083,-0.1765856142265958
20663170,1971.0,1,211819.0,245208,1.28,0.16,9.92,-0.03,-0.01,-0.0,32.17,18.743685,-17.735572994277454,-32.47411462258922,10.003519380697975,0.03162277660168379,-0.4684515170647397,-0.08035565226950733
20703170,1981.0,1,211955.0,245529,1.27,0.15,9.93,-0.03,-0.01,-0.0,32.17,18.783685,-18.02242495161779,34.571310756112176,10.012007790648187,0.03162277660168379,-0.4761463599253666,0.07875779296926977
20743170,1978.0,1,212083.0,245949,1.26,0.15,9.89,-0.03,-0.01,-0.0,32.17,18.823685,-8.166046546219633,121.97522616347862,9.971068147395243,0.03162277660168379,-0.2117476655339221,0.28618638379811767
20783170,1995.0,1,212219.0,246306,1.27,0.15,9.88,-0.03,-0.01,-0.0,32.17,18.863685,0.25920001039020996,223.80620595732248,9.962419384868317,0.03162277660168379,0.014260721915328716,0.5278535510286796
20823169,1968.0,1,212311.0,246575,1.27,0.14,9.93,-0.03,-0.01,-0.0,32.17,18.903684,-14.268399249788992,342.87308315738574,10.011862963504845,0.03162277660168379,-0.3754441087078348,0.8104252692050379
20863170,1951.0,1,212398.0,246851,1.26,0.16,9.9,-0.03,-0.01,-0.0,32.17,18.943685,-40.30445025705426,473.49516975844614,9.981142219205175,0.03162277660168379,-1.0738647263314243,1.1204200243427251
20903170,1930.0,1,212496.0,247170,1.26,0.16,9.91,-0.03,-0.01,-0.0,32.17,18.983685,-48.90239521274933,576.1220754971353,9.991061004718167,0.03162277660168379,-1.3045057718791728,1.3639760977667212
20943169,1957.0,1,212624.0,247445,1.24,0.15,9.93,-0.03,-0.01,-0.0,32.17,19.023684,-29.84543353133036,579.5001382931713,10.008246599679687,0.03162277660168379,-0.7933001768428263,1.371992978958454
20983170,1968.0,1,212658.0,247228,1.26,0.14,9.9,-0.03,-0.01,-0.0,32.17,19.063685,-9.69959718303886,425.36363392970793,9.980841647877197,0.03162277660168379,-0.25288537042724313,1.0061933720829122
21023187,1977.0,1,212282.0,245757,1.28,0.16,9.94,-0.03,-0.01,0.0,32.17,19.103702,-4.014191829865858,125.05766692266451,10.023352732494253,0.03162277660168379,-0.10037359676788485,0.2935016892968625
21063170,1968.0,1,211776.0,244639,1.24,0.15,9.91,-0.03,-0.01,-0.0,32.17,19.143685,-9.986689987192632,-225.88910689224178,9.98840327579939,0.03162277660168379,-0.26058667403647384,-0.5393716941101825
21103169,1969.0,1,211578.0,244425,1.27,0.16,9.93,-0.03,-0.01,-0.0,32.17,19.183684,-6.606925129503779,-498.36303149369104,10.012162603553739,0.03162277660168379,-0.1699240209839482,-1.186011858389607
21143170,1974.0,1,211628.0,244584,1.29,0.15,9.94,-0.03,-0.01,-0.0,32.17,19.223685,-3.8373291655462385,-609.1374919356273,10.024480036390914,0.03162277660168379,-0.09562923168678275,-1.4489038595339885
21183170,1954.0,1,211718.0,244811,1.26,0.14,9.93,-0.03,-0.01,-0.0,32.17,19.263685,-18.0803768692857,-565.8104600703384,10.010599382654368,0.03162277660168379,-0.4777009280170791,-1.3460793450631412
21223170,1971.0,1,211820.0,245230,1.26,0.13,9.92,-0.03,-0.01,-0.0,32.17,19.303685,-6.185182415839193,-445.75910449769555,10.00054498514956,0.03162277660168379,-0.1586107151959977,-1.0611712445797215
21263170,1974.0,1,212017.0,245610,1.24,0.17,9.9,-0.03,-0.01,-0.0,32.17,19.343685,4.907934290048597,-333.43461139862836,9.978802533370425,0.03162277660168379,0.1389636527039096,-0.7946006772257048
21303173,1977.0,1,212066.0,245621,1.28,0.17,9.95,-0.03,-0.01,-0.0,32.17,19.383688,-1.2924379245874038,-267.78256789645746,10.03343410802104,0.03162277660168379,-0.027362177216834385,-0.6387940316627557
21343169,1988.0,1,212142.0,245696,1.28,0.15,9.9,-0.03,-0.01,-0.0,32.17,19.423684,23.249199024200234,-234.18950089284434,9.983531439325466,0.03162277660168379,0.6309705795627248,-0.5590703428817465
21383170,2009.0,1,212176.0,246055,1.27,0.15,9.94,-0.03,-0.01,-0.0,32.17,19.463685,27.594366095498163,-195.65107668911185,10.021925962608185,0.03162277660168379,0.7475302786033645,-0.46761024080180175
21423169,1965.0,1,212356.0,246388,1.28,0.16,9.95,-0.03,-0.01,-0.0,32.17,19.503684,3.899372041877511,-129.38917835376247,10.033269656497826,0.03162277660168379,0.1119088329048961,-0.3103562764537984
21463170,1981.0,1,212523.0,246783,1.28,0.14,9.92,-0.03,-0.01,-0.0,32.17,19.543685,-1.5978336624704808,-37.91422311236404,10.003219481746864,0.03162277660168379,-0.0355544595184934,-0.093266218492207
21503905,1965.0,1,212650.0,247179,1.27,0.16,9.92,-0.03,-0.01,-0.0,31.95,19.58442,2.508044176796944,67.83067221477748,10.002244748055308,0.03162277660168379,0.07458627325192412,0.15768952557053942
21542169,1993.0,1,212839.0,247630,1.27,0.16,9.93,-0.03,-0.01,0.0,31.95,19.622684,14.237261127165905,187.75329421300526,10.012162603553739,0.03162277660168379,0.389224116926137,0.4422921131509177
21582169,1973.0,1,212964.0,247858,1.25,0.15,9.94,-0.03,-0.01,-0.0,31.95,19.662684,3.547518986235026,327.7803360174171,10.019411160342706,0.03162277660168379,0.10247032672106668,0.7746068821638097
21622170,1968.0,1,213089.0,248176,1.26,0.15,9.91,-0.03,-0.01,-0.0,31.95,19.702685,-4.1181461804587,471.85454353112783,9.99090586483528,0.03162277660168379,-0.10316218639407093,1.1165264597944624
21662169,2003.0,1,213226.0,248530,1.26,0.16,9.92,-0.03,-0.01,-0.0,31.95,19.742684,25.214732605093868,562.2345248263789,10.000979951984705,0.03162277660168379,0.6836962858207349,1.331017905307343
21702170,1997.0,1,213348.0,248855,1.24,0.15,9.91,-0.03,-0.01,-0.0,31.95,19.782685,29.705820171403037,521.0804405272241,9.98840327579939,0.03162277660168379,0.8041703220326012,1.2333502702450145
21742169,2007.0,1,213357.0,248090,1.27,0.16,9.91,-0.03,-0.01,-0.0,31.95,19.822684,23.22510285779438,309.73617786967617,9.992327056296746,0.03162277660168379,0.6303241966139881,0.7317841518566578
21782170,1994.0,1,212784.0,246570,1.26,0.14,9.959999999999999,-0.03,-0.01,-0.0,31.95,19.862685,27.633917742014013,-22.225461308297668,10.040358559334422,0.03162277660168379,0.7485912569130138,-0.05603335841151696
21822169,2006.0,1,212414.0,245991,1.25,0.15,9.93,-0.03,-0.01,-0.0,31.95,19.902684,19.28662629449458,-349.5944065934913,10.009490496523787,0.03162277660168379,0.5246740258923106,-0.8329514024733143
21862170,1999.0,1,212386.0,246133,1.25,0.14,9.94,-0.03,-0.01,-0.0,31.95,19.942685,29.5251763480317,-546.169213534802,10.019266440214073,0.03162277660168379,0.7993245268444719,-1.2994663750148343
21902169,2014.0,1,212459.0,246369,1.25,0.15,9.93,-0.03,-0.01,-0.0,31.95,19.982684,27.698099898523758,-563.865410249649,10.009490496523787,0.03162277660168379,0.7503129520109931,-1.3414633168049437
21942170,1978.0,1,212578.0,246697,1.25,0.15,9.94,-0.03,-0.01,-0.0,31.95,20.022685,0.8593422807176614,-453.4550425940182,10.019411160342706,0.03162277660168379,0.030359620131005082,-1.0794353874042857
21982170,1993.0,1,212747.0,247166,1.26,0.13,9.93,-0.03,-0.01,-0.0,31.95,20.062685,10.535713433189345,-315.1820487458291,10.010464524686155,0.03162277660168379,0.2899295954232839,-0.7512833574873454
22022170,2016.0,1,212904.0,247363,1.25,0.16,9.959999999999999,-0.03,-0.01,-0.0,31.95,20.102685,27.92751845848761,-223.35488028313512,10.039407353026371,0.03162277660168379,0.7564671361574121,-0.5333574205857304
22062170,2006.0,1,212924.0,247342,1.26,0.15,9.92,-0.03,-0.01,-0.0,31.95,20.142685,27.627783974011205,-182.92415523196533,10.000824965971558,0.03162277660168379,0.748426717750155,-0.4374064750878594
22102170,2015.0,1,212893.0,247568,1.27,0.14,9.91,-0.03,-0.01,-0.0,31.95,20.182685,17.44767336878825,-144.0452091940049,9.992026821421167,0.03162277660168379,0.4753438629657545,-0.34513824028421286
22142170,1973.0,1,212989.0,248368,1.25,0.15,9.92,-0.03,-0.01,-0.0,31.95,20.222685,-6.073462258560587,-52.84320013819452,9.999569990754603,0.03162277660168379,-0.15561380674679567,-0.12869594326542086
22182170,1987.0,1,213390.0,249294,1.3,0.13,9.93,-0.03,-0.01,-0.0,31.95,20.262685,-14.659179085631637,107.99874028040124,10.01557786650376,0.03162277660168379,-0.3859268310772105,0.2530171286457142
22222169,1965.0,1,213625.0,249846,1.27,0.14,9.9,-0.03,-0.01,-0.0,31.95,20.302684,-21.037742417151694,316.5073902433881,9.982108995598075,0.03162277660168379,-0.5570326620001983,0.747853718469729
22262170,1965.0,1,213679.0,250307,1.27,0.15,9.95,-0.03,-0.01,-0.0,31.95,20.342685,-36.69216348127246,532.6378032710041,10.03184429703731,0.03162277660168379,-0.9769646411276026,1.2607784175593175
22302169,1957.0,1,213831.0,250481,1.29,0.15,9.9,-0.03,-0.01,-0.0,31.95,20.382684,-38.42206796214331,711.2382906383248,9.984818476066554,0.03162277660168379,-1.0233695646554637,1.6846364019903723
22342170,1962.0,1,213919.0,250618,1.27,0.14,9.93,-0.03,-0.01,-0.0,31.95,20.422685,-40.71975766696074,798.9281315340791,10.011862963504845,0.03162277660168379,-1.0850054042187733,1.8927435564838102
22382170,1936.0,1,213914.0,250746,1.29,0.13,9.94,-0.03,-0.01,-0.0,31.95,20.462685,-65.97989485511408,739.5732822514525,10.02420071626661,0.03162277660168379,-1.7626120278685606,1.751881528871301
22422170,1936.0,1,213946.0,250235,1.28,0.15,9.93,-0.03,-0.01,0.0,31.95,20.502685,-72.50925415415401,507.58846746814646,10.01328118051221,0.03162277660168379,-1.9377629811774657,1.201330869900057
22462169,1966.0,1,213347.0,248242,1.28,0.14,9.92,-0.03,-0.01,-0.0,31.95,20.542684,-37.98920846340735,147.551806318557,10.003219481746864,0.03162277660168379,-1.0117580495924825,0.3468851975190171
22502170,1985.0,1,212830.0,247328,1.27,0.15,9.92,-0.03,-0.01,-0.0,31.95,20.582685,-32.74660925609685,-225.91265295561584,10.002089781640635,0.03162277660168379,-0.8711246111612474,-0.539427574063872
22542856,1965.0,1,212613.0,247163,1.28,0.14,9.92,-0.03,-0.01,-0.0,32.03,20.623371,-40.023352275609966,-484.93138817936784,10.003219481746864,0.03162277660168379,-1.066324234658617,-1.1541356337122517
22583170,2000.0,1,212650.0,247308,1.28,0.15,9.92,-0.03,-0.01,-0.0,32.03,20.663685,-25.0640613202567,-562.900917003004,10.003364434029184,0.03162277660168379,-0.6650392154622204,-1.3391743635688893
22623169,1983.0,1,212691.0,247460,1.27,0.17,9.95,-0.03,-0.01,-0.0,32.03,20.703684,-26.86978719808781,-487.161218638723,10.032163276183258,0.03162277660168379,-0.7134780582998604,-1.1594275086564754
22663170,2011.0,1,212787.0,247786,1.27,0.15,9.9,-0.03,-0.01,0.0,32.03,20.743685,-16.284332631476826,-347.1330907754077,9.982254254425701,0.03162277660168379,-0.42952179649288097,-0.8271101621884791
22703169,2001.0,1,212906.0,247894,1.27,0.16,9.93,-0.03,-0.01,-0.0,32.03,20.783684,-17.417901565866654,-229.04877671695593,10.012162603553739,0.03162277660168379,-0.4599299376911961,-0.5468702810575774
22743170,2001.0,1,212861.0,247772,1.27,0.13,9.9,-0.03,-0.01,-0.0,32.03,20.823685,-25.72212820091113,-168.34683426169713,9.981973752720451,0.03162277660168379,-0.6826919492464661,-0.4028113069786318
22781169,2063.0,1,212859.0,247747,1.28,0.15,9.92,-0.03,-0.01,-0.0,32.03,20.861684,36.17714737256032,-146.98123343328436,10.003364434029184,0.03162277660168379,0.9777645564046031,-0.3521060673861752
22821170,2094.0,1,212877.0,247919,1.26,0.16,9.91,-0.03,-0.01,-0.0,32.03,20.901685,67.72073912156883,-123.86782598681995,9.991061004718167,0.03162277660168379,1.8239257052386288,-0.29725290075710864
22861169,2069.0,1,212932.0,248173,1.3,0.15,9.92,-0.03,-0.01,-0.0,32.03,20.941684,35.57370478208665,-66.40015418837947,10.005943233898542,0.03162277660168379,0.9615771266510897,-0.16086955770196934
22901170,2066.0,1,213030.0,248377,1.27,0.17,9.9,-0.03,-0.01,-0.0,32.03,20.981685,40.173185308237706,38.31908525861541,9.982574818151878,0.03162277660168379,1.0849588187873391,0.08765208083012015
22941174,2075.0,1,213164.0,248607,1.29,0.15,9.91,-0.03,-0.01,-0.0,32.03,21.021689,36.51167576615957,187.80617772444077,9.994733613258534,0.03162277660168379,0.9867383261673455,0.4424176172796976
22981169,2047.0,1,213217.0,248749,1.27,0.13,9.91,-0.03,-0.01,-0.0,32.03,21.061684,21.641486010895996,365.4075519136687,9.991891712783922,0.03162277660168379,0.5878434588100385,0.8639044878122003
23021177,2087.0,1,213310.0,248835,1.28,0.14,9.9,-0.03,-0.01,-0.0,32.03,21.101692,45.90633459584433,531.365855203289,9.983386199080952,0.03162277660168379,1.2387513299965511,1.2577598068476126
23061169,2079.0,1,213386.0,248957,1.28,0.17,9.92,-0.03,-0.01,-0.0,32.03,21.141684,53.42589034018108,619.8406516060472,10.003684321288832,0.03162277660168379,1.4404644379386573,1.467729832288219
23101169,2086.0,1,213377.0,249065,1.27,0.15,9.93,-0.03,-0.01,-0.0,32.03,21.181684,44.60098844498474,563.307453076766,10.012007790648187,0.03162277660168379,1.203735241548978,1.3335641985025732
23141194,2064.0,1,213291.0,247999,1.28,0.14,9.9,-0.03,-0.01,0.0,32.03,21.221709,39.181506601998926,340.0128181369448,9.983386199080952,0.03162277660168379,1.0583569023023016,0.803637235284339
23181169,2067.0,1,212655.0,246470,1.26,0.15,9.9,-0.03,-0.01,-0.0,32.03,21.261684,25.053229897891672,6.846152117491062,9.980986925149237,0.03162277660168379,0.6793639536832474,0.012959932997990494
23221169,2043.0,1,212230.0,245768,1.28,0.15,9.93,-0.03,-0.01,-0.0,32.03,21.301684,22.145779536203587,-319.9094531210568,10.01328118051221,0.03162277660168379,0.6013712013740173,-0.7625025211056032
23261170,2064.0,1,212118.0,245649,1.28,0.14,9.9,-0.03,-0.01,-0.0,32.03,21.341685,20.47181103588866,-530.3384236175621,9.983386199080952,0.03162277660168379,0.5564667681500179,-1.2618964511854969
23301170,2034.0,1,212089.0,245681,1.27,0.15,9.93,-0.03,-0.01,-0.0,32.03,21.381685,18.724080363758162,-583.2595010513368,10.012007790648187,0.03162277660168379,0.5095836546114689,-1.387489732288177
23341180,2065.0,1,212126.0,245774,1.28,0.14,9.92,-0.03,-0.01,-0.0,32.03,21.421695,22.363644599113794,-517.773051596256,10.003219481746864,0.03162277660168379,0.6072154613869467,-1.2320760775847042
23381169,2027.0,1,212129.0,246073,1.27,0.16,9.94,-0.03,-0.01,-0.0,32.03,21.461684,13.982351274313674,-411.935388913653,10.022080622305928,0.03162277660168379,0.3823861253728975,-0.9809001763158578
23421169,2028.0,1,212239.0,246261,1.28,0.16,9.9,-0.03,-0.01,-0.0,32.03,21.501684,-6.811013550532748,-327.0929057033845,9.983686693802046,0.03162277660168379,-0.17539872070031845,-0.77955042381675
23461169,1996.0,1,212228.0,246266,1.28,0.16,9.91,-0.03,-0.01,-0.0,32.03,21.541684,-21.263584032265317,-278.3565884942149,9.993602953890054,0.03162277660168379,-0.5630908941133844,-0.6638884931839061
23501169,1999.0,1,212234.0,246348,1.28,0.14,9.91,-0.03,-0.01,-0.0,32.03,21.581684,-20.931319285325316,-243.2165004692675,9.993302757347042,0.03162277660168379,-0.554177846980867,-0.5804933854631118
23541169,2000.0,1,212228.0,246570,1.26,0.14,9.93,-0.03,-0.01,0.0,32.03,21.621684,-25.25862778460435,-190.45824027139145,10.010599382654368,0.03162277660168379,-0.6702584873925376,-0.45528650524016023
23581855,1973.0,1,212416.0,246982,1.3,0.16,9.92,-0.03,-0.01,-0.0,31.81,21.66237,-31.257146566257727,-102.05119687493546,10.006098140634041,0.03162277660168379,-0.8311695714559383,-0.24547727248894505
23622169,1990.0,1,212505.0,247287,1.3,0.15,9.93,-0.03,-0.01,-0.0,31.81,21.702684,-38.985070510690164,24.941137947555017,10.015857427100288,0.03162277660168379,-1.0384721847713185,0.055903288502197085
23662169,1958.0,1,212670.0,247675,1.29,0.16,9.92,-0.03,-0.01,-0.0,31.81,21.742684,-38.748703788677496,186.00249739172705,10.004803846153107,0.03162277660168379,-1.0321316152307347,0.4381370897086297
23702170,1992.0,1,212770.0,247990,1.28,0.14,9.94,-0.03,-0.01,-0.0,31.81,21.782685,-29.469423333129733,367.20443211621927,10.023053426975235,0.03162277660168379,-0.7832136520166623,0.8681688771884215
23742170,1970.0,1,212841.0,248189,1.28,0.13,9.92,-0.03,-0.01,-0.0,31.81,21.822685,-31.12793955682182,531.0986784798413,10.003084524285496,0.03162277660168379,-0.8277035758137289,1.2571257380992191
23782170,1988.0,1,212969.0,248536,1.25,0.15,9.9,-0.03,-0.01,-0.0,31.81,21.862685,-16.504143585724872,612.4346062303597,9.979729455250778,0.03162277660168379,-0.4354182553062207,1.4501536682372904
23822170,1998.0,1,213062.0,248704,1.27,0.14,9.9,-0.03,-0.01,-0.0,31.81,21.902685,-12.564389664466017,546.5546016629851,9.982108995598075,0.03162277660168379,-0.32973381928315626,1.293806021252395
23862170,1966.0,1,212907.0,247374,1.28,0.15,9.93,-0.03,-0.01,0.0,31.81,21.942685,-23.435992227389022,320.6110251956266,10.01328118051221,0.03162277660168379,-0.6213660401002109,0.7575925409406855
23902169,1983.0,1,212289.0,246110,1.27,0.16,9.9,-0.03,-0.01,-0.0,31.81,21.982684,-29.47082437063554,3.103865910208461,9.98240952876609,0.03162277660168379,-0.7832512350387515,0.004078670061004945
23942170,1949.0,1,212001.0,245740,1.27,0.16,9.95,-0.03,-0.01,-0.0,31.81,22.022685,-38.30693767120966,-284.82241577694543,10.031998803827678,0.03162277660168379,-1.02028117890608,-0.6792333142431063
23982169,1994.0,1,212006.0,245870,1.27,0.16,9.91,-0.03,-0.01,-0.0,31.81,22.062684,-6.999243075445075,-441.34409074042475,9.992327056296746,0.03162277660168379,-0.1804480033664024,-1.0506934521617004
24022170,2011.0,1,212035.0,245987,1.29,0.14,9.93,-0.03,-0.01,-0.0,31.81,22.102685,13.614100443458037,-442.1923078934151,10.014419603751383,0.03162277660168379,0.37250774663355546,-1.0527064568187758
24062169,1984.0,1,212095.0,246279,1.29,0.16,9.91,-0.03,-0.01,-0.0,31.81,22.142684,0.31048555207704365,-341.1567526072598,9.99488869372741,0.03162277660168379,0.01563646356255792,-0.8129270057617008
24102170,2000.0,1,212237.0,246653,1.26,0.15,9.93,-0.03,-0.01,0.0,31.81,22.182685,-7.770460259189231,-220.27827730635815,10.010744228078151,0.03162277660168379,-0.20113600945619745,-0.5260559694203185
24142170,1959.0,1,212332.0,246730,1.29,0.16,9.92,-0.03,-0.01,0.0,31.81,22.222685,-14.561696341747139,-134.21829667568446,10.004803846153107,0.03162277660168379,-0.38331184318321476,-0.32181682949416734
24181170,2015.0,1,212355.0,246782,1.28,0.14,9.91,-0.03,-0.01,-0.0,31.81,22.261685,6.886103185426343,-88.05343764012703,9.993302757347042,0.03162277660168379,0.19202830299545995,-0.21225753102421552
24221169,2000.0,1,212361.0,246912,1.26,0.15,9.92,-0.03,-0.01,-0.0,31.81,22.301684,24.272069084254817,-54.36925153781049,10.000824965971558,0.03162277660168379,0.6584092083660196,-0.1323175967105714
24261170,2027.0,1,212488.0,247231,1.27,0.17,9.92,-0.03,-0.01,-0.0,31.81,22.341685,27.566981770320705,-5.185288078079589,10.002409709664967,0.03162277660168379,0.7467956903473226,-0.015593303705161167
24301170,2016.0,1,212616.0,247609,1.29,0.15,9.93,-0.03,-0.01,-0.0,31.81,22.381685,31.984435866342487,70.63211784496117,10.014564393921486,0.03162277660168379,0.8652944986806778,0.16433796822490201
24341170,2015.0,1,212724.0,247940,1.28,0.15,9.92,-0.03,-0.01,-0.0,31.81,22.421685,24.453473340378707,172.7041199768871,10.003364434029184,0.03162277660168379,0.6632754022664018,0.4065771341321094
24381169,2016.0,1,212878.0,248251,1.28,0.16,9.92,-0.03,-0.01,-0.0,31.81,22.461684,26.27737946450496,300.041323531475,10.003519380697975,0.03162277660168379,0.7122019326893235,0.7087761439854848
24421169,2003.0,1,212972.0,248541,1.27,0.16,9.93,-0.03,-0.01,-0.0,31.81,22.501684,15.561101538005666,446.35421052495496,10.012162603553739,0.03162277660168379,0.4247363164189006,1.0560085972194981
24461170,2003.0,1,213076.0,248751,1.3,0.15,9.92,-0.03,-0.01,-0.0,31.81,22.541685,12.443534410372093,580.7183172999135,10.005943233898542,0.03162277660168379,0.3411071532191031,1.3748839839388158
24501170,2015.0,1,213153.0,248973,1.28,0.15,9.93,-0.03,-0.01,-0.0,31.81,22.581685,26.26872377419789,639.7610561980613,10.01328118051221,0.03162277660168379,0.711969742616853,1.5150053054063688
24541169,1989.0,1,213263.0,249066,1.29,0.15,9.93,-0.03,-0.01,-0.0,31.81,22.621684,-0.8983213310677428,555.7553343835283,10.014564393921486,0.03162277660168379,-0.0167899458678907,1.3156413705490502
24581857,1971.0,1,213129.0,247805,1.28,0.15,9.89,-0.03,-0.01,-0.0,31.63,22.662372,-19.54608353824457,310.2529351378636,9.973615192095593,0.03162277660168379,-0.5170187092237457,0.7330105297762406
24622169,1991.0,1,212482.0,246374,1.29,0.16,9.92,-0.03,-0.01,-0.0,31.63,22.702684,0.5604055104607547,-32.538292296607196,10.004803846153107,0.03162277660168379,0.022340600516434137,-0.080507959914104
24662170,1991.0,1,212184.0,245978,1.27,0.14,9.91,-0.03,-0.01,-0.0,31.63,22.742685,-0.6201567650977114,-351.2068094655592,9.992026821421167,0.03162277660168379,-0.009328143465077194,-0.8367779868321797
24702170,1978.0,1,212152.0,246051,1.28,0.15,9.95,-0.03,-0.01,-0.0,31.63,22.782685,-13.921364994748687,-538.5511009090806,10.033115169278183,0.03162277660168379,-0.36613486750707985,-1.2813869290384854
24742170,1980.0,1,212214.0,246257,1.28,0.15,9.93,-0.03,-0.01,-0.0,31.63,22.822685,-12.917360157047057,-562.6230079835073,10.01328118051221,0.03162277660168379,-0.33920230086519654,-1.3385148247367424
24782173,1982.0,1,212223.0,246563,1.27,0.14,9.959999999999999,-0.03,-0.01,-0.0,31.63,22.862688,-10.81799192943847,-472.04637169088676,10.041618395457974,0.03162277660168379,-0.28288646196410594,-1.1235566739419112
24822170,1997.0,1,212386.0,247046,1.29,0.15,9.92,-0.03,-0.01,-0.0,31.63,22.902685,1.032676456178266,-350.36892551007656,10.00464891937743,0.03162277660168379,0.03500933301744434,-0.8347895051108081
24862169,1999.0,1,212482.0,247232,1.27,0.17,9.9,-0.03,-0.01,-0.0,31.63,22.942684,7.381296710509839,-260.94432607593933,9.982574818151878,0.03162277660168379,0.20531193681287369,-0.6225653895250898
24902170,1997.0,1,212518.0,247203,1.27,0.16,9.92,-0.03,-0.01,-0.0,31.63,22.982685,-4.523012394798209,-219.98876374718805,10.002244748055308,0.03162277660168379,-0.11402277778694458,-0.5253688904796943
24942170,1979.0,1,212531.0,247331,1.26,0.13,9.9,-0.03,-0.01,-0.0,31.63,23.022685,-9.691758506724284,-205.76226255660413,9.980706387826466,0.03162277660168379,-0.2526750968665004,-0.49160629436905096
24982187,1991.0,1,212531.0,247680,1.27,0.15,9.93,-0.03,-0.01,0.0,31.63,23.062702,-16.458824767706613,-184.92333390639013,10.012007790648187,0.03162277660168379,-0.4342025718348121,-0.4421509629442475
25022169,1986.0,1,212719.0,248079,1.28,0.13,9.93,-0.03,-0.01,-0.0,31.63,23.102684,-1.556802579163402,-131.40354853223246,10.013001547987496,0.03162277660168379,-0.03445379511523584,-0.3151368170689442
25062169,2032.0,1,212820.0,248370,1.28,0.15,9.92,-0.03,-0.01,-0.0,31.63,23.142684,22.41195641292388,-29.40796463638759,10.003364434029184,0.03162277660168379,0.60851143237849,-0.07307900833492574
25102170,1994.0,1,212972.0,248700,1.27,0.14,9.9,-0.03,-0.01,-0.0,31.63,23.182685,2.5651917521092287,126.83715544311296,9.982108995598075,0.03162277660168379,0.0761192647502953,0.29772480441101246
25142170,2003.0,1,213030.0,249114,1.27,0.16,9.92,-0.03,-0.01,-0.0,31.63,23.222685,-3.9437305132640397,321.6981708721934,10.002244748055308,0.03162277660168379,-0.09848346234443173,0.7601725751950424
25182169,2005.0,1,213278.0,249349,1.27,0.14,9.93,-0.03,-0.01,-0.0,31.63,23.262684,6.770042172347162,501.85518871668415,10.011862963504845,0.03162277660168379,0.18891495049764218,1.187724546582594
25221170,2015.0,1,213363.0,249718,1.27,0.15,9.93,-0.03,-0.01,-0.0,31.63,23.301685,10.951285910112542,582.4852273857365,10.012007790648187,0.03162277660168379,0.3010773837694917,1.379077247678951
25261169,2031.0,1,213439.0,249780,1.24,0.14,9.92,-0.03,-0.01,-0.0,31.63,23.341684,28.48201232050438,492.10369066915274,9.99817983434985,0.03162277660168379,0.7713415095971544,1.164582110811356
25301170,2021.0,1,213197.0,248266,1.28,0.14,9.94,-0.03,-0.01,0.0,31.63,23.381685,15.835995496616915,231.85289386610833,10.023053426975235,0.03162277660168379,0.43211038433345056,0.546950099804323
25341170,2009.0,1,212611.0,246960,1.28,0.15,9.91,-0.03,-0.01,-0.0,31.63,23.421685,6.417429834949575,-103.08101225359397,9.993447853468792,0.03162277660168379,0.17945607647722334,-0.24792124941850727
25381170,2027.0,1,212353.0,246838,1.26,0.14,9.92,-0.03,-0.01,-0.0,31.63,23.461685,17.79896125866047,-370.1410250344352,10.000679976881573,0.03162277660168379,0.4847672085007505,-0.8817130178956802
25421170,1991.0,1,212399.0,247098,1.28,0.14,9.9,-0.03,-0.01,-0.0,31.63,23.501685,-10.285885959112184,-465.7410922100879,9.983386199080952,0.03162277660168379,-0.2686126467709808,-1.1085928678997172
25461169,1989.0,1,212487.0,247345,1.26,0.12,9.95,-0.03,-0.01,-0.0,31.63,23.541684,-24.117491216388995,-385.4178994564855,10.030179460009675,0.03162277660168379,-0.6396473433851981,-0.9179683792129157
25501170,1997.0,1,212611.0,247761,1.25,0.14,9.9,-0.03,-0.01,-0.0,31.63,23.581685,-3.517574523479972,-213.9603899498973,9.979584159673188,0.03162277660168379,-0.08705176982293812,-0.5110622421340965
25541170,2001.0,1,212819.0,248127,1.29,0.15,9.91,-0.03,-0.01,-0.0,31.63,23.621685,-15.6333557283517,-59.52428998599767,9.994733613258534,0.03162277660168379,-0.4120592523223971,-0.14455162943087072
25581856,1956.0,1,212832.0,248072,1.26,0.17,9.93,-0.03,-0.01,0.0,31.77,23.662371,-43.41811764808158,14.959636905702167,10.01106387952849,0.03162277660168379,-1.157389278565129,0.03221500536501264
25622170,1991.0,1,212784.0,247959,1.28,0.16,9.94,-0.03,-0.01,-0.0,31.77,23.702685,-29.81576552335232,17.144673273278755,10.023352732494253,0.03162277660168379,-0.7925043284843365,0.0374005741410082
25662169,1984.0,1,212715.0,248143,1.27,0.15,9.92,-0.03,-0.01,-0.0,31.77,23.742684,-13.685267787609124,0.8940016935434147,10.002089781640635,0.03162277660168379,-0.35980152773970864,-0.0011658206262771613
25702170,1982.0,1,212873.0,248412,1.27,0.13,9.91,-0.03,-0.01,-0.0,31.77,23.782685,-42.59384655384894,21.5305291484156,9.991891712783922,0.03162277660168379,-1.1352780940939284,0.04780916853312378
25742170,1963.0,1,212943.0,248668,1.26,0.14,9.92,-0.03,-0.01,-0.0,31.77,23.822685,-34.91341864264974,104.95803199638145,10.000679976881573,0.03162277660168379,-0.9292495683449064,0.2458008634299494
25780170,2043.0,1,213054.0,248866,1.29,0.16,9.9,-0.03,-0.01,-0.0,31.77,23.860685,18.60266910136173,241.23068788675116,9.984973710531241,0.03162277660168379,0.5063267809463453,0.5692056542576787
25820169,2046.0,1,213114.0,249082,1.26,0.15,9.91,-0.03,-0.01,-0.0,31.77,23.900684,42.51269879897565,390.38076773459164,9.99090586483528,0.03162277660168379,1.1477165871095767,0.9231713861205356
25860170,2071.0,1,213106.0,249237,1.26,0.15,9.89,-0.03,-0.01,-0.0,31.77,23.940685,52.438743831367525,490.4986035268168,9.971068147395243,0.03162277660168379,1.4139840982674015,1.160772888277783
25900169,2060.0,1,213206.0,249311,1.29,0.15,9.91,-0.03,-0.01,-0.0,31.77,23.980684,46.817359349167425,475.2124781350242,9.994733613258534,0.03162277660168379,1.2631896931995095,1.1244955723878205
25940170,2045.0,1,213147.0,249116,1.28,0.15,9.92,-0.03,-0.01,-0.0,31.77,24.020685,33.59323892017828,308.81719735518584,10.003364434029184,0.03162277660168379,0.9084508599192224,0.7296032102794817
25980170,2042.0,1,212834.0,247328,1.26,0.16,9.92,-0.03,-0.01,-0.0,31.77,24.060685,21.36576075156254,22.691113466090638,10.000979951984705,0.03162277660168379,0.5804470911402887,0.05056348873069589
26020170,2006.0,1,212246.0,246341,1.29,0.15,9.9,-0.03,-0.01,-0.0,31.77,24.100685,-3.3886978180252867,-283.1994230398907,9.984818476066554,0.03162277660168379,-0.08359463463005354,-0.675381597820522
26060169,2025.0,1,212110.0,246208,1.27,0.14,9.91,-0.03,-0.01,-0.0,31.77,24.140684,3.6032459948510076,-490.24864175118387,9.992026821421167,0.03162277660168379,0.10396521132415139,-1.166754638368289
26100170,2032.0,1,212131.0,246431,1.26,0.15,9.92,-0.03,-0.01,-0.0,31.77,24.180685,18.487934851183567,-531.688453054753,10.000824965971558,0.03162277660168379,0.5032490190442177,-1.2651003660493656
26140169,2033.0,1,212239.0,246598,1.26,0.14,9.93,-0.03,-0.01,-0.0,31.77,24.220684,14.950609441662404,-428.8894020460946,10.010599382654368,0.03162277660168379,0.4083597827094145,-1.0211357542824226
26180170,2023.0,1,212374.0,246963,1.26,0.15,9.93,-0.03,-0.01,-0.0,31.77,24.260685,4.300252647041805,-266.92551003308955,10.010744228078151,0.03162277660168379,0.12266250978830813,-0.636760046068076
26221169,1993.0,1,212470.0,247175,1.26,0.16,9.91,-0.03,-0.01,-0.0,31.77,24.301684,-23.205996441398604,-133.52772619283323,9.991061004718167,0.03162277660168379,-0.6151963717869392,-0.3201779548343972
