timestamp_us,ecg,leads,ir,red,accX,accY,accZ,gyroX,gyroY,gyroZ,temp
1919492,731,1,214002,249552,0.00,0.00,0.00,0.00,0.00,0.00,0.00
1949963,549,1,214753,251518,1.30,0.12,9.66,-0.04,-0.03,-0.00,32.95
1990182,656,1,215815,253346,1.37,0.14,9.86,-0.04,-0.04,-0.00,32.95
2030174,853,1,216460,254403,1.36,0.12,9.89,-0.04,-0.02,-0.00,32.95
2070177,1039,1,216811,255023,1.37,0.13,9.92,-0.04,-0.02,-0.00,32.95
2110174,1293,1,217099,255633,1.36,0.11,9.90,-0.03,-0.02,-0.00,32.95
2150177,1452,1,217329,256144,1.37,0.13,9.90,-0.04,-0.02,-0.01,32.95
2190178,1659,1,217571,256774,1.38,0.10,9.90,-0.04,-0.01,-0.00,32.95
2230177,1829,1,217840,257253,1.37,0.12,9.90,-0.04,-0.01,-0.01,32.95
2270174,1947,1,217987,257622,1.39,0.13,9.93,-0.03,-0.01,-0.01,32.95
2310177,2059,1,218136,257907,1.36,0.12,9.90,-0.04,-0.01,-0.01,32.95
2350174,2159,1,218139,258087,1.38,0.13,9.92,-0.03,-0.01,-0.00,32.95
2390201,2221,1,218199,258091,1.38,0.14,9.92,-0.03,-0.01,-0.00,32.95
2430174,2313,1,218185,257899,1.37,0.13,9.93,-0.03,-0.01,-0.00,32.95
2470177,2295,1,217860,256566,1.39,0.11,9.93,-0.03,-0.01,-0.00,32.95
2510174,2332,1,217445,255692,1.36,0.13,9.91,-0.03,-0.01,-0.00,32.95
2550177,2295,1,217279,255596,1.37,0.11,9.92,-0.03,-0.01,-0.00,32.95
2590174,2323,1,217222,255698,1.37,0.11,9.88,-0.03,-0.01,-0.00,32.95
2630177,2262,1,217167,255744,1.37,0.11,9.93,-0.03,-0.01,-0.00,32.95
2670174,2253,1,217077,255984,1.39,0.12,9.87,-0.03,-0.01,-0.00,32.95
2710177,2174,1,217154,256133,1.40,0.12,9.91,-0.03,-0.01,-0.00,32.95
2750174,2096,1,217173,256157,1.38,0.11,9.91,-0.03,-0.01,-0.00,32.95
2790177,2145,1,217229,256149,1.36,0.11,9.92,-0.03,-0.01,-0.00,32.95
2830175,2240,1,217296,256255,1.37,0.13,9.91,-0.03,-0.01,-0.00,32.95
2870177,2261,1,217264,256312,1.37,0.11,9.90,-0.03,-0.01,-0.00,32.95
2910174,2249,1,217151,256459,1.37,0.12,9.91,-0.03,-0.01,-0.00,32.95
2950177,2201,1,217170,256636,1.40,0.11,9.91,-0.03,-0.01,-0.01,32.95
2990861,2160,1,217293,256755,1.37,0.12,9.90,-0.03,-0.01,-0.00,32.69
3029177,2176,1,217326,256870,1.36,0.12,9.91,-0.03,-0.01,-0.00,32.69
3069174,2192,1,217239,256897,1.36,0.11,9.88,-0.03,-0.01,-0.00,32.69
3109177,2096,1,217252,257032,1.38,0.14,9.90,-0.03,-0.01,-0.00,32.69
3149174,2015,1,217078,256765,1.37,0.10,9.90,-0.03,-0.01,-0.00,32.69
3189177,1895,1,216626,255542,1.39,0.12,9.90,-0.03,-0.01,-0.00,32.69
3229174,1679,1,216114,254570,1.36,0.12,9.91,-0.03,-0.01,-0.00,32.69
3269177,1632,1,216287,254222,1.37,0.11,9.89,-0.03,-0.01,-0.00,32.69
3309174,1889,1,216232,254272,1.38,0.13,9.88,-0.03,-0.01,-0.00,32.69
3349177,2016,1,216142,254307,1.36,0.12,9.94,-0.03,-0.01,-0.01,32.69
3389177,1895,1,216010,254595,1.38,0.13,9.92,-0.03,-0.01,-0.01,32.69
3429177,1792,1,216240,254747,1.38,0.15,9.92,-0.03,-0.01,-0.00,32.69
3469174,1919,1,216481,254765,1.37,0.13,9.93,-0.03,-0.01,-0.01,32.69
3509177,2113,1,216461,254727,1.37,0.13,9.95,-0.03,-0.01,-0.00,32.69
3549174,2221,1,216483,254859,1.37,0.14,9.93,-0.03,-0.01,-0.00,32.69
3589177,2155,1,216430,255038,1.38,0.12,9.93,-0.03,-0.01,-0.00,32.69
3629174,2112,1,216597,255269,1.39,0.13,9.91,-0.03,-0.01,-0.00,32.69
3669177,2139,1,216805,255505,1.35,0.14,9.90,-0.03,-0.01,-0.00,32.69
3709174,2263,1,216913,255718,1.37,0.14,9.94,-0.03,-0.01,-0.00,32.69
3749177,2339,1,216975,255860,1.39,0.12,9.90,-0.03,-0.01,-0.00,32.69
3789174,2389,1,217025,256016,1.39,0.10,9.88,-0.03,-0.01,-0.01,32.69
3829212,2386,1,216956,255556,1.36,0.12,9.89,-0.03,-0.01,-0.00,32.69
3869174,2310,1,216590,254293,1.37,0.12,9.90,-0.03,-0.01,-0.00,32.69
3909177,2244,1,216225,253532,1.37,0.12,9.92,-0.03,-0.01,-0.00,32.69
3949174,2159,1,216069,253615,1.37,0.14,9.93,-0.03,-0.01,-0.00,32.69
3989177,2059,1,216061,253785,1.36,0.13,9.92,-0.03,-0.01,-0.00,32.69
4029897,1837,1,215869,253911,1.39,0.12,9.90,-0.03,-0.01,-0.00,32.59
4068177,1707,1,215754,254175,1.37,0.14,9.93,-0.03,-0.01,-0.00,32.59
4108174,1522,1,215626,254206,1.37,0.12,9.92,-0.03,-0.01,-0.00,32.59
4148177,1392,1,215571,254184,1.37,0.12,9.91,-0.03,-0.01,-0.00,32.59
4188174,1328,1,215675,254279,1.39,0.13,9.90,-0.03,-0.01,-0.00,32.59
4228177,1446,1,215884,254516,1.38,0.12,9.91,-0.03,-0.01,-0.01,32.59
4268177,1616,1,215924,254778,1.35,0.15,9.92,-0.03,-0.01,-0.00,32.59
4308177,1695,1,216028,255011,1.39,0.12,9.91,-0.03,-0.01,-0.00,32.59
4348174,1729,1,216169,255190,1.38,0.14,9.90,-0.03,-0.01,-0.00,32.59
4388177,1872,1,216168,255389,1.38,0.14,9.90,-0.03,-0.01,-0.00,32.59
4428174,1898,1,216157,255544,1.37,0.11,9.92,-0.03,-0.01,-0.00,32.59
4468177,1889,1,216205,255719,1.37,0.13,9.90,-0.03,-0.01,-0.00,32.59
4508174,1853,1,216282,255803,1.37,0.14,9.88,-0.03,-0.01,-0.00,32.59
4548177,1904,1,216302,254721,1.38,0.13,9.91,-0.03,-0.01,-0.01,32.59
4588177,2011,1,215917,253407,1.37,0.13,9.90,-0.03,-0.01,-0.00,32.59
4628177,2096,1,215640,253114,1.37,0.11,9.90,-0.03,-0.01,-0.01,32.59
4668174,2131,1,215645,253281,1.39,0.11,9.92,-0.03,-0.01,-0.00,32.59
4708177,2154,1,215701,253358,1.36,0.13,9.90,-0.03,-0.01,-0.00,32.59
4748174,2151,1,215765,253562,1.40,0.14,9.92,-0.03,-0.01,-0.00,32.59
4788177,2142,1,215865,253711,1.38,0.12,9.88,-0.03,-0.01,-0.01,32.59
4828177,2096,1,215918,253854,1.39,0.12,9.90,-0.03,-0.01,-0.00,32.59
4868177,2023,1,215865,253930,1.39,0.13,9.91,-0.03,-0.01,-0.01,32.59
4908177,2011,1,215873,254112,1.37,0.11,9.91,-0.03,-0.01,-0.00,32.59
4948177,1969,1,215931,254398,1.35,0.12,9.92,-0.03,-0.01,-0.00,32.59
4988174,1951,1,215986,254735,1.38,0.14,9.91,-0.03,-0.01,-0.00,32.59
5028177,1877,1,215973,254989,1.38,0.12,9.91,-0.03,-0.01,-0.01,32.59
5068864,1770,1,215615,255168,1.37,0.13,9.91,-0.03,-0.01,-0.00,32.47
5109177,1622,1,215552,255328,1.37,0.12,9.91,-0.03,-0.01,-0.00,32.47
5149174,1488,1,215303,255539,1.39,0.13,9.91,-0.03,-0.01,-0.00,32.47
5189177,1437,1,215684,255761,1.38,0.14,9.91,-0.03,-0.01,-0.00,32.47
5229174,1535,1,215624,255840,1.39,0.13,9.91,-0.03,-0.01,-0.00,32.47
5269177,1583,1,215353,254853,1.38,0.14,9.90,-0.03,-0.01,-0.01,32.47
5309174,1618,1,214936,253562,1.36,0.13,9.87,-0.03,-0.01,-0.00,32.47
5349177,1680,1,214366,253280,1.39,0.14,9.92,-0.03,-0.01,-0.00,32.47
5389174,1655,1,214290,253507,1.37,0.13,9.90,-0.03,-0.01,-0.00,32.47
5429177,1659,1,214442,253739,1.38,0.13,9.92,-0.03,-0.01,-0.00,32.47
5469217,1666,1,214292,254105,1.38,0.13,9.93,-0.03,-0.01,-0.00,32.47
5509177,1771,1,215204,254469,1.37,0.14,9.93,-0.03,-0.01,-0.00,32.47
5549174,2064,1,215234,254601,1.37,0.13,9.91,-0.03,-0.01,-0.00,32.47
5589177,2144,1,215016,254628,1.37,0.13,9.92,-0.03,-0.01,-0.00,32.47
5629174,2151,1,215089,254821,1.37,0.13,9.93,-0.03,-0.01,-0.00,32.47
5667216,2219,1,215363,255114,1.38,0.11,9.92,-0.03,-0.01,-0.00,32.47
5707174,2288,1,215469,255417,1.37,0.13,9.90,-0.03,-0.01,-0.00,32.47
5747177,2335,1,215750,255627,1.38,0.14,9.89,-0.03,-0.01,-0.00,32.47
5787174,2359,1,215979,255899,1.38,0.12,9.91,-0.03,-0.01,-0.01,32.47
5827176,2452,1,216407,256046,1.36,0.12,9.89,-0.03,-0.01,-0.01,32.47
5867177,2558,1,216439,256278,1.35,0.13,9.92,-0.03,-0.01,-0.00,32.47
5907177,2559,1,216490,256505,1.38,0.13,9.90,-0.03,-0.01,-0.00,32.47
5947174,2502,1,216404,256643,1.38,0.12,9.93,-0.03,-0.01,-0.01,32.47
5987177,2369,1,216248,255720,1.37,0.13,9.92,-0.03,-0.01,-0.00,32.47
6027177,2254,1,215663,254485,1.39,0.12,9.90,-0.03,-0.01,-0.00,32.47
6067177,2143,1,215303,254109,1.39,0.13,9.89,-0.03,-0.01,-0.00,32.47
6107861,1957,1,215495,254385,1.37,0.13,9.93,-0.03,-0.01,-0.00,32.59
6148177,1922,1,215636,254581,1.38,0.14,9.90,-0.03,-0.01,-0.00,32.59
6188174,1919,1,215610,254821,1.39,0.13,9.91,-0.03,-0.01,-0.00,32.59
6228177,1847,1,215629,255180,1.36,0.14,9.91,-0.03,-0.01,-0.01,32.59
6268177,1810,1,215769,255294,1.39,0.13,9.92,-0.03,-0.01,-0.00,32.59
6308177,1827,1,215710,255329,1.38,0.12,9.90,-0.03,-0.01,-0.00,32.59
6348174,1807,1,215335,255535,1.37,0.14,9.89,-0.03,-0.01,-0.00,32.59
6388177,1664,1,215058,255935,1.40,0.13,9.92,-0.03,-0.01,-0.00,32.59
6428174,1517,1,215328,256213,1.38,0.13,9.90,-0.03,-0.01,-0.00,32.59
6468177,1535,1,215481,256503,1.37,0.13,9.90,-0.03,-0.01,-0.00,32.59
6508174,1578,1,215390,256786,1.38,0.12,9.90,-0.03,-0.01,-0.01,32.59
6548177,1589,1,215460,257016,1.39,0.14,9.90,-0.03,-0.01,-0.00,32.59
6588174,1615,1,215559,257167,1.37,0.11,9.89,-0.03,-0.01,-0.00,32.59
6628177,1711,1,215838,257261,1.37,0.14,9.91,-0.03,-0.01,-0.01,32.59
6668177,1843,1,215980,256369,1.37,0.14,9.91,-0.03,-0.01,-0.00,32.59
6708177,1991,1,215709,255150,1.37,0.12,9.91,-0.03,-0.01,-0.01,32.59
6748177,2094,1,215473,254779,1.38,0.11,9.90,-0.03,-0.01,-0.01,32.59
6788177,2183,1,215716,254983,1.36,0.13,9.90,-0.03,-0.01,-0.00,32.59
6828174,2290,1,215820,255219,1.37,0.14,9.92,-0.03,-0.01,-0.00,32.59
6868177,2365,1,216071,255486,1.36,0.13,9.92,-0.03,-0.01,-0.01,32.59
6908177,2419,1,216354,255708,1.38,0.14,9.90,-0.03,-0.01,-0.00,32.59
6948177,2471,1,216455,255703,1.36,0.12,9.92,-0.03,-0.01,-0.01,32.59
6988177,2529,1,216469,255777,1.38,0.14,9.89,-0.03,-0.01,-0.00,32.59
7028177,2499,1,216575,256010,1.39,0.14,9.93,-0.03,-0.01,-0.00,32.59
7068175,2434,1,216643,256294,1.40,0.13,9.92,-0.03,-0.01,-0.00,32.59
7108884,2346,1,216772,256531,1.37,0.15,9.90,-0.03,-0.01,-0.00,32.53
7147174,2262,1,216647,256755,1.36,0.16,9.90,-0.03,-0.01,-0.00,32.53
7187177,2132,1,216521,256873,1.38,0.12,9.93,-0.03,-0.01,-0.00,32.53
7227174,1925,1,216392,257019,1.36,0.15,9.90,-0.03,-0.01,-0.00,32.53
7267177,1779,1,216777,257207,1.37,0.13,9.94,-0.03,-0.01,-0.01,32.53
7307194,1840,1,216996,256878,1.36,0.13,9.90,-0.03,-0.01,-0.00,32.53
7347177,1919,1,216727,255703,1.38,0.13,9.88,-0.03,-0.01,-0.01,32.53
7387177,1931,1,216289,255268,1.40,0.13,9.93,-0.04,-0.02,-0.00,32.53
7427177,1920,1,216571,255999,1.41,0.11,9.93,-0.04,-0.03,-0.00,32.53
7467174,1904,1,216999,256710,1.36,0.12,9.91,-0.04,-0.03,-0.00,32.53
7507177,1955,1,217261,257366,1.37,0.12,9.90,-0.04,-0.02,-0.01,32.53
7547174,1975,1,217531,258047,1.41,0.13,9.90,-0.04,-0.03,-0.01,32.53
7587177,1986,1,217764,258286,1.44,0.14,9.91,-0.03,-0.02,-0.01,32.53
7627177,1994,1,217672,258295,1.42,0.12,9.91,-0.03,-0.02,-0.00,32.53
7667177,1952,1,217650,258315,1.42,0.11,9.89,-0.03,-0.01,-0.01,32.53
7707177,1914,1,217544,258468,1.43,0.14,9.90,-0.03,-0.01,-0.01,32.53
7747177,1840,1,217386,258560,1.41,0.12,9.88,-0.03,-0.01,-0.01,32.53
7787177,1711,1,217453,258603,1.41,0.13,9.89,-0.03,-0.01,-0.01,32.53
7827177,1722,1,217584,258677,1.42,0.11,9.90,-0.03,-0.01,-0.00,32.53
7867174,1741,1,217445,258698,1.39,0.12,9.89,-0.03,-0.01,-0.01,32.53
7907177,1737,1,217715,258777,1.43,0.14,9.90,-0.03,-0.01,-0.00,32.53
7947174,1842,1,217802,258895,1.43,0.13,9.90,-0.03,-0.01,-0.00,32.53
7987177,1924,1,217874,258252,1.42,0.13,9.91,-0.03,-0.01,-0.00,32.53
8027174,1984,1,217235,256860,1.41,0.11,9.91,-0.03,-0.01,-0.01,32.53
8067176,1867,1,216853,255996,1.40,0.12,9.89,-0.03,-0.01,-0.01,32.53
8107174,1837,1,216699,255893,1.40,0.12,9.91,-0.03,-0.01,-0.00,32.53
8147864,1792,1,216832,256021,1.41,0.13,9.90,-0.03,-0.01,-0.00,32.45
8186174,1936,1,216979,256132,1.42,0.13,9.89,-0.03,-0.01,-0.00,32.45
8226177,2057,1,217026,256391,1.39,0.13,9.90,-0.03,-0.01,-0.00,32.45
8266174,2139,1,217008,256517,1.42,0.11,9.92,-0.03,-0.01,-0.00,32.45
8306177,2130,1,216974,256552,1.39,0.12,9.90,-0.03,-0.01,-0.00,32.45
8346174,2045,1,216938,256623,1.42,0.13,9.90,-0.03,-0.01,-0.00,32.45
8386177,1981,1,216987,256794,1.41,0.14,9.91,-0.03,-0.01,-0.00,32.45
8426174,1904,1,217048,257038,1.40,0.14,9.91,-0.03,-0.01,-0.01,32.45
8466177,1919,1,217139,257204,1.41,0.13,9.90,-0.03,-0.01,-0.00,32.45
8506174,1879,1,217013,257376,1.40,0.13,9.89,-0.03,-0.01,-0.01,32.45
8546177,1855,1,217126,257525,1.41,0.11,9.88,-0.03,-0.01,-0.00,32.45
8586175,1829,1,217140,257645,1.41,0.12,9.90,-0.03,-0.01,-0.00,32.45
8626177,1833,1,217353,257821,1.42,0.10,9.89,-0.03,-0.01,-0.00,32.45
8666174,1882,1,217449,257869,1.41,0.12,9.89,-0.03,-0.01,-0.01,32.45
8706177,1999,1,217349,256921,1.41,0.13,9.90,-0.03,-0.01,-0.00,32.45
8746179,2034,1,217132,255825,1.40,0.14,9.90,-0.03,-0.01,-0.00,32.45
8786177,2141,1,216900,255574,1.42,0.12,9.89,-0.03,-0.01,-0.00,32.45
8826174,2233,1,216873,255618,1.42,0.11,9.92,-0.03,-0.01,-0.01,32.45
8866177,2175,1,216703,255685,1.42,0.13,9.92,-0.03,-0.01,-0.00,32.45
8906174,2013,1,216775,255907,1.40,0.13,9.90,-0.03,-0.01,-0.00,32.45
8946220,1952,1,216970,256162,1.40,0.12,9.92,-0.03,-0.01,-0.01,32.45
8986174,1934,1,216896,256230,1.39,0.12,9.91,-0.03,-0.01,-0.00,32.45
9026180,1872,1,216769,256230,1.42,0.13,9.91,-0.03,-0.01,-0.00,32.45
9066174,1697,1,216565,256367,1.42,0.13,9.90,-0.03,-0.01,-0.01,32.45
9106177,1579,1,216645,256551,1.42,0.10,9.90,-0.03,-0.01,-0.00,32.45
9146212,1518,1,216394,256742,1.40,0.13,9.90,-0.03,-0.01,-0.00,32.45
9186863,1329,1,216434,256902,1.41,0.11,9.90,-0.03,-0.01,-0.00,32.27
9227174,1334,1,217018,257182,1.40,0.13,9.91,-0.03,-0.01,-0.00,32.27
9267177,1591,1,217309,257269,1.39,0.12,9.91,-0.03,-0.01,-0.01,32.27
9307177,1846,1,217507,257469,1.40,0.11,9.89,-0.03,-0.01,-0.00,32.27
9347177,2093,1,217664,257662,1.42,0.14,9.92,-0.03,-0.01,-0.01,32.27
9387177,2199,1,217602,257670,1.41,0.11,9.93,-0.03,-0.01,-0.01,32.27
9427177,2240,1,217360,256529,1.41,0.12,9.89,-0.03,-0.01,-0.00,32.27
9467174,2195,1,216816,255598,1.41,0.13,9.90,-0.03,-0.01,-0.00,32.27
9507177,2128,1,216657,255448,1.40,0.12,9.91,-0.03,-0.01,-0.00,32.27
9547174,2045,1,216778,255645,1.42,0.14,9.90,-0.03,-0.01,-0.00,32.27
9586177,2032,1,216819,255794,1.42,0.14,9.90,-0.03,-0.01,-0.00,32.27
9626174,2017,1,216898,256047,1.41,0.14,9.94,-0.03,-0.01,-0.01,32.27
9666177,1986,1,216913,256261,1.41,0.12,9.92,-0.03,-0.01,-0.00,32.27
9706174,1974,1,216916,256282,1.41,0.12,9.92,-0.03,-0.01,-0.00,32.27
9746177,1937,1,216796,256371,1.41,0.12,9.91,-0.03,-0.01,-0.01,32.27
9786177,1854,1,216630,256481,1.41,0.13,9.90,-0.03,-0.01,-0.00,32.27
9826177,1751,1,216767,256733,1.40,0.12,9.92,-0.03,-0.01,-0.00,32.27
9866174,1735,1,216903,256973,1.41,0.13,9.90,-0.03,-0.01,-0.00,32.27
9906177,1776,1,217065,257151,1.41,0.13,9.90,-0.03,-0.01,-0.00,32.27
9946174,1818,1,217090,257265,1.41,0.10,9.89,-0.03,-0.01,-0.00,32.27
9986177,1859,1,217153,257398,1.42,0.15,9.92,-0.03,-0.01,-0.00,32.27
10026179,1889,1,217180,257539,1.42,0.12,9.89,-0.03,-0.01,-0.00,32.27
10066177,1936,1,217231,257300,1.43,0.12,9.90,-0.03,-0.01,-0.00,32.27
10106175,1993,1,217070,256069,1.42,0.11,9.89,-0.03,-0.01,-0.00,32.27
10146177,2053,1,216897,255189,1.41,0.13,9.90,-0.03,-0.01,-0.01,32.27
10186177,2262,1,216867,255152,1.41,0.13,9.92,-0.03,-0.01,-0.00,32.27
10226863,2391,1,216742,255272,1.41,0.12,9.90,-0.03,-0.01,-0.00,32.33
10265174,2471,1,216816,255404,1.43,0.12,9.88,-0.03,-0.01,-0.01,32.33
10305177,2434,1,216879,255732,1.41,0.11,9.91,-0.03,-0.01,-0.00,32.33
10345177,2321,1,216861,255964,1.41,0.12,9.88,-0.03,-0.01,-0.00,32.33
10385182,2203,1,216884,256015,1.40,0.15,9.90,-0.03,-0.01,-0.00,32.33
10425174,2039,1,216834,256152,1.42,0.12,9.92,-0.03,-0.01,-0.00,32.33
10465177,1876,1,216966,256411,1.43,0.12,9.91,-0.03,-0.01,-0.00,32.33
10505177,1846,1,217134,256564,1.40,0.12,9.92,-0.03,-0.02,-0.00,32.33
10545177,1835,1,217179,256743,1.40,0.09,9.91,-0.03,-0.01,-0.00,32.33
10586174,1801,1,217366,256981,1.40,0.13,9.90,-0.03,-0.01,-0.00,32.33
10626177,1794,1,217227,257184,1.40,0.12,9.88,-0.03,-0.01,-0.00,32.33
10666174,1702,1,217196,257377,1.41,0.11,9.88,-0.03,-0.01,-0.00,32.33
10706177,1656,1,217225,257463,1.44,0.12,9.87,-0.03,-0.01,-0.01,32.33
10746177,1597,1,217090,257627,1.43,0.12,9.92,-0.03,-0.01,-0.00,32.33
10786177,1577,1,217081,257197,1.40,0.11,9.91,-0.03,-0.01,-0.00,32.33
10826174,1576,1,216651,255766,1.41,0.13,9.88,-0.03,-0.01,-0.01,32.33
10866177,1595,1,216360,254663,1.43,0.14,9.92,-0.03,-0.01,-0.01,32.33
10906177,1650,1,215958,254318,1.40,0.12,9.91,-0.03,-0.01,-0.00,32.33
10946177,1700,1,215824,253954,1.41,0.13,9.89,-0.02,-0.01,-0.01,32.33
10986177,1747,1,215893,253936,1.43,0.14,9.92,-0.03,-0.02,-0.01,32.33
11026178,1968,1,216122,254250,1.45,0.12,9.89,-0.03,-0.01,-0.00,32.33
11066177,2112,1,215978,254665,1.42,0.12,9.91,-0.04,0.00,-0.01,32.33
11106168,2029,1,215888,254885,1.43,0.13,9.92,-0.03,-0.00,-0.01,32.33
11146177,1897,1,215999,255074,1.43,0.11,9.89,-0.03,-0.00,-0.00,32.33
11186177,1872,1,216227,255383,1.39,0.14,9.90,-0.03,-0.00,-0.01,32.33
11226861,1945,1,216510,255509,1.39,0.16,9.89,-0.03,-0.01,-0.00,32.19
11265177,2176,1,216492,255728,1.43,0.13,9.90,-0.03,-0.02,-0.00,32.19
11305174,2260,1,216590,255984,1.41,0.12,9.90,-0.03,-0.02,-0.00,32.19
11345177,2333,1,216811,256113,1.41,0.14,9.89,-0.03,-0.01,-0.00,32.19
11385177,2361,1,216833,256280,1.41,0.12,9.91,-0.03,-0.01,-0.00,32.19
11425177,2319,1,216901,256514,1.44,0.12,9.89,-0.03,-0.01,-0.00,32.19
11465177,2304,1,217027,256665,1.40,0.12,9.89,-0.03,-0.01,-0.00,32.19
11505177,2309,1,217047,255910,1.42,0.12,9.92,-0.03,-0.01,-0.01,32.19
11545177,2298,1,216654,254633,1.43,0.14,9.93,-0.03,-0.01,-0.00,32.19
11585177,2227,1,216220,254028,1.39,0.13,9.90,-0.03,-0.01,-0.01,32.19
11626177,2128,1,216333,254227,1.41,0.11,9.88,-0.03,-0.01,-0.00,32.19
11666177,2112,1,216298,254221,1.42,0.13,9.90,-0.03,-0.01,-0.00,32.19
11706174,2065,1,216419,254371,1.42,0.14,9.88,-0.03,-0.01,-0.00,32.19
11746177,2047,1,216492,254731,1.41,0.13,9.90,-0.03,-0.01,-0.00,32.19
11786174,1975,1,216602,254889,1.42,0.14,9.92,-0.03,-0.01,-0.00,32.19
11826177,1917,1,216674,254900,1.41,0.13,9.91,-0.03,-0.01,-0.00,32.19
11866177,1869,1,216669,255077,1.40,0.13,9.89,-0.03,-0.01,-0.00,32.19
11906177,1847,1,216678,255222,1.41,0.13,9.88,-0.03,-0.01,-0.00,32.19
11946177,1808,1,216732,255574,1.45,0.12,9.88,-0.03,-0.01,-0.00,32.19
11986177,1764,1,216724,255764,1.41,0.13,9.90,-0.03,-0.01,-0.00,32.19
12026179,1735,1,216861,256056,1.41,0.12,9.93,-0.03,-0.01,-0.00,32.19
12066177,1736,1,216840,256112,1.43,0.13,9.91,-0.03,-0.01,-0.01,32.19
12106177,1755,1,216998,256373,1.43,0.13,9.91,-0.03,-0.01,-0.00,32.19
12146177,1733,1,217028,256578,1.40,0.13,9.89,-0.03,-0.01,-0.00,32.19
12186174,1716,1,216891,256830,1.41,0.13,9.91,-0.03,-0.01,-0.00,32.19
12226224,1662,1,216718,256935,1.41,0.13,9.90,-0.03,-0.01,-0.00,32.19
12266861,1616,1,216837,255850,1.39,0.14,9.90,-0.03,-0.01,-0.01,32.25
12305177,1486,1,216134,254791,1.42,0.12,9.91,-0.03,-0.01,-0.00,32.25
12345177,1323,1,216640,254604,1.43,0.12,9.92,-0.03,-0.01,-0.00,32.25
12385176,1802,1,216639,254741,1.40,0.13,9.90,-0.03,-0.01,-0.00,32.25
12425195,2044,1,216669,254795,1.41,0.12,9.90,-0.03,-0.01,-0.01,32.25
12465177,2163,1,216713,255180,1.41,0.12,9.90,-0.03,-0.01,-0.00,32.25
12505174,2176,1,216676,255391,1.38,0.11,9.90,-0.03,-0.01,-0.01,32.25
12545177,2124,1,216798,255440,1.39,0.14,9.92,-0.03,-0.01,-0.00,32.25
12585177,2035,1,216563,255449,1.41,0.14,9.92,-0.03,-0.01,-0.00,32.25
12625177,1809,1,216547,255601,1.42,0.11,9.91,-0.03,-0.01,-0.00,32.25
12666177,1778,1,216556,255771,1.40,0.12,9.90,-0.03,-0.01,-0.00,32.25
12704177,1831,1,216515,255938,1.41,0.14,9.91,-0.03,-0.01,-0.00,32.25
12744177,1794,1,216495,256025,1.42,0.12,9.91,-0.03,-0.01,-0.00,32.25
12784176,1703,1,216136,256216,1.42,0.14,9.90,-0.03,-0.01,-0.01,32.25
12824177,1555,1,216067,256322,1.42,0.13,9.91,-0.03,-0.01,-0.00,32.25
12864177,1457,1,215968,256458,1.42,0.13,9.91,-0.03,-0.01,-0.01,32.25
12904177,1405,1,216186,256444,1.41,0.11,9.90,-0.03,-0.01,-0.00,32.25
12944177,1415,1,215829,255579,1.41,0.13,9.90,-0.03,-0.01,-0.00,32.25
12984177,1424,1,215495,254476,1.42,0.14,9.91,-0.03,-0.01,-0.00,32.25
13024210,1520,1,215463,254093,1.42,0.13,9.89,-0.03,-0.01,-0.00,32.25
13064177,1662,1,215344,254176,1.41,0.13,9.92,-0.03,-0.01,-0.00,32.25
13104177,1737,1,215196,254216,1.41,0.12,9.89,-0.03,-0.01,-0.00,32.25
13144177,1719,1,215091,254551,1.43,0.13,9.90,-0.03,-0.01,-0.00,32.25
13184177,1843,1,215667,254852,1.39,0.13,9.92,-0.03,-0.01,-0.00,32.25
13224177,2009,1,215773,254846,1.40,0.12,9.92,-0.03,-0.01,-0.01,32.25
13264177,2157,1,215848,254808,1.42,0.14,9.89,-0.03,-0.01,-0.00,32.25
13304864,2169,1,215825,255011,1.43,0.11,9.87,-0.03,-0.01,-0.00,32.21
13345177,2236,1,216056,255196,1.41,0.13,9.90,-0.03,-0.01,-0.01,32.21
13385177,2298,1,216124,255546,1.40,0.15,9.91,-0.03,-0.01,-0.00,32.21
13425177,2295,1,216172,255779,1.41,0.13,9.93,-0.03,-0.01,-0.01,32.21
13465177,2277,1,216186,255923,1.40,0.13,9.91,-0.03,-0.01,-0.00,32.21
13505177,2190,1,216322,256177,1.40,0.14,9.88,-0.03,-0.01,-0.00,32.21
13545174,2251,1,216497,256380,1.40,0.13,9.89,-0.03,-0.01,-0.00,32.21
13585177,2279,1,216605,256563,1.40,0.14,9.89,-0.03,-0.01,-0.01,32.21
13625177,2262,1,216723,256197,1.40,0.13,9.91,-0.03,-0.01,-0.00,32.21
13664177,2314,1,216311,255004,1.40,0.12,9.92,-0.04,-0.01,-0.01,32.21
13704177,2305,1,216059,254351,1.41,0.14,9.90,-0.03,-0.01,-0.01,32.21
13744177,2268,1,216023,254411,1.40,0.11,9.91,-0.03,-0.01,-0.00,32.21
13784177,2259,1,216006,254536,1.40,0.13,9.92,-0.03,-0.01,-0.00,32.21
13824177,2189,1,215986,254554,1.42,0.14,9.90,-0.03,-0.01,-0.00,32.21
13864213,2146,1,216156,254823,1.41,0.13,9.91,-0.03,-0.01,-0.00,32.21
13904177,2091,1,216275,255040,1.40,0.13,9.92,-0.03,-0.01,-0.00,32.21
13944174,2062,1,216261,254994,1.41,0.11,9.90,-0.03,-0.01,-0.00,32.21
13984177,1997,1,216212,255006,1.40,0.13,9.90,-0.03,-0.01,-0.01,32.21
14024207,1984,1,216317,255104,1.41,0.12,9.91,-0.03,-0.01,-0.00,32.21
14064217,1946,1,216437,255416,1.40,0.13,9.91,-0.03,-0.01,-0.01,32.21
14104177,1921,1,216467,255683,1.41,0.14,9.88,-0.03,-0.01,-0.01,32.21
14144177,1871,1,216504,255879,1.42,0.13,9.91,-0.03,-0.01,-0.00,32.21
14184177,1822,1,216661,256140,1.40,0.13,9.91,-0.03,-0.00,-0.00,32.21
14224177,1774,1,216744,256278,1.42,0.14,9.91,-0.03,-0.01,-0.00,32.21
14264177,1740,1,216805,256448,1.40,0.11,9.90,-0.03,-0.01,-0.00,32.21
14304864,1696,1,216843,256604,1.38,0.11,9.90,-0.03,-0.01,-0.00,32.17
14345174,1694,1,216878,256190,1.41,0.14,9.90,-0.03,-0.01,-0.00,32.17
14385177,1696,1,216515,254911,1.41,0.13,9.90,-0.03,-0.01,-0.00,32.17
14425174,1681,1,216114,254323,1.39,0.11,9.89,-0.03,-0.01,-0.00,32.17
14465177,1673,1,215999,254369,1.41,0.13,9.89,-0.03,-0.01,-0.00,32.17
14505177,1673,1,215978,254432,1.40,0.14,9.91,-0.03,-0.01,-0.00,32.17
14545177,1670,1,216104,254594,1.40,0.15,9.89,-0.03,-0.01,-0.00,32.17
14585174,1658,1,216140,254925,1.40,0.11,9.89,-0.03,-0.01,-0.00,32.17
14625177,1695,1,216232,255215,1.41,0.14,9.89,-0.03,-0.00,-0.00,32.17
14665177,1693,1,216372,255263,1.40,0.12,9.91,-0.03,-0.00,-0.00,32.17
14704177,1729,1,216343,255261,1.42,0.13,9.95,-0.03,-0.01,-0.00,32.17
14744177,1734,1,216268,255359,1.40,0.13,9.89,-0.03,-0.01,-0.00,32.17
14784177,1756,1,216347,255586,1.42,0.13,9.90,-0.03,-0.01,-0.00,32.17
14824177,1773,1,216378,255712,1.39,0.12,9.90,-0.03,-0.01,-0.01,32.17
14864177,1794,1,216421,255970,1.40,0.14,9.95,-0.03,-0.02,-0.00,32.17
14904174,1821,1,216514,256205,1.41,0.13,9.89,-0.03,-0.01,-0.00,32.17
14944177,1817,1,216477,256431,1.42,0.14,9.91,-0.03,-0.01,-0.00,32.17
14984177,1814,1,216648,256713,1.39,0.12,9.91,-0.03,-0.01,-0.00,32.17
15024205,1825,1,216780,256807,1.40,0.13,9.91,-0.03,-0.01,-0.00,32.17
15064174,1798,1,216758,255885,1.42,0.12,9.90,-0.03,-0.01,-0.00,32.17
15104177,1881,1,216369,254790,1.40,0.13,9.91,-0.03,-0.01,-0.00,32.17
15144175,1950,1,216099,254468,1.42,0.13,9.89,-0.03,-0.01,-0.00,32.17
15184177,1938,1,216070,254507,1.42,0.12,9.90,-0.03,-0.01,-0.00,32.17
15224174,1975,1,216197,254709,1.40,0.11,9.94,-0.03,-0.01,-0.00,32.17
15264177,1967,1,216184,254936,1.41,0.12,9.88,-0.03,-0.01,-0.00,32.17
15304864,1935,1,216119,255147,1.41,0.13,9.90,-0.03,-0.01,-0.00,32.21
15343177,2000,1,216237,255224,1.40,0.14,9.91,-0.03,-0.01,-0.00,32.21
15383177,1984,1,216099,255108,1.41,0.13,9.90,-0.03,-0.01,-0.00,32.21
15423176,1929,1,216208,255283,1.41,0.13,9.90,-0.03,-0.01,-0.00,32.21
15463177,1908,1,216232,255446,1.39,0.14,9.92,-0.03,-0.01,-0.00,32.21
15503231,1908,1,216357,255759,1.42,0.13,9.92,-0.03,-0.01,-0.00,32.21
15543177,1905,1,216413,255954,1.42,0.15,9.92,-0.03,-0.01,-0.00,32.21
15583176,1939,1,216478,256103,1.40,0.13,9.90,-0.03,-0.01,-0.00,32.21
15623177,1958,1,216608,256413,1.39,0.13,9.89,-0.03,-0.01,-0.00,32.21
15663177,1919,1,216477,256486,1.41,0.14,9.92,-0.03,-0.01,-0.00,32.21
15703224,1869,1,216249,256187,1.41,0.13,9.91,-0.03,-0.01,-0.00,32.21
15743177,1776,1,215913,254940,1.38,0.15,9.89,-0.03,-0.01,-0.00,32.21
15783177,1690,1,215446,254128,1.39,0.12,9.91,-0.03,-0.01,-0.00,32.21
15823177,1670,1,215444,254085,1.43,0.13,9.93,-0.03,-0.01,-0.00,32.21
15863177,1715,1,215515,254286,1.42,0.11,9.90,-0.03,-0.01,-0.00,32.21
15903177,1773,1,215608,254400,1.40,0.11,9.90,-0.03,-0.01,-0.00,32.21
15943174,1856,1,215770,254680,1.42,0.15,9.89,-0.03,-0.01,-0.00,32.21
15983177,1936,1,216003,254931,1.41,0.13,9.92,-0.03,-0.01,-0.00,32.21
16023196,2047,1,216037,254922,1.41,0.12,9.90,-0.03,-0.01,-0.00,32.21
16063177,2138,1,216085,255096,1.41,0.11,9.90,-0.03,-0.01,-0.00,32.21
16103177,2151,1,216013,255237,1.42,0.13,9.91,-0.03,-0.01,-0.00,32.21
16143177,2143,1,216197,255609,1.41,0.11,9.89,-0.03,-0.01,-0.01,32.21
16183177,2101,1,216293,255895,1.41,0.14,9.90,-0.03,-0.01,-0.00,32.21
16223176,2147,1,216563,256170,1.40,0.14,9.91,-0.03,-0.01,-0.00,32.21
16263177,2222,1,216556,256341,1.40,0.13,9.91,-0.03,-0.01,-0.00,32.21
16303177,2216,1,216900,256533,1.40,0.13,9.93,-0.03,-0.01,-0.00,32.21
16343863,2256,1,216953,256659,1.41,0.14,9.92,-0.03,-0.01,-0.00,32.19
16384177,2224,1,216967,256677,1.41,0.13,9.90,-0.03,-0.01,-0.00,32.19
16424174,2139,1,216744,255537,1.38,0.12,9.91,-0.03,-0.01,-0.01,32.19
16464177,2033,1,216234,254253,1.41,0.15,9.91,-0.03,-0.01,-0.00,32.19
16504177,1942,1,215923,253938,1.42,0.14,9.91,-0.03,-0.01,-0.00,32.19
16544177,1880,1,215847,254057,1.41,0.12,9.91,-0.03,-0.01,-0.00,32.19
16584177,1740,1,215775,254149,1.39,0.13,9.90,-0.03,-0.01,-0.00,32.19
16624177,1630,1,215888,254217,1.42,0.14,9.92,-0.03,-0.01,-0.00,32.19
16664177,1614,1,216106,254523,1.43,0.13,9.89,-0.03,-0.01,-0.00,32.19
16704177,1670,1,216201,254652,1.41,0.11,9.90,-0.03,-0.01,-0.00,32.19
16744174,1723,1,216249,254727,1.41,0.16,9.88,-0.03,-0.01,-0.00,32.19
16784176,1773,1,216308,254816,1.41,0.14,9.90,-0.03,-0.01,-0.00,32.19
16824174,1763,1,216403,255107,1.39,0.14,9.93,-0.03,-0.01,-0.00,32.19
16864177,1805,1,216517,255388,1.41,0.12,9.89,-0.03,-0.01,-0.00,32.19
16904177,1806,1,216585,255607,1.41,0.13,9.89,-0.03,-0.01,-0.00,32.19
16944177,1813,1,216609,255863,1.41,0.13,9.87,-0.03,-0.01,-0.00,32.19
16984177,1808,1,216576,256020,1.39,0.12,9.91,-0.03,-0.01,-0.00,32.19
17024210,1789,1,216616,256211,1.41,0.13,9.91,-0.03,-0.01,-0.00,32.19
17064177,1813,1,216767,256411,1.42,0.12,9.91,-0.03,-0.01,-0.01,32.19
17104177,1854,1,216848,256665,1.41,0.13,9.89,-0.03,-0.01,-0.00,32.19
17144177,1861,1,216783,256423,1.39,0.12,9.90,-0.03,-0.01,-0.00,32.19
17184177,1862,1,216532,255000,1.42,0.15,9.90,-0.03,-0.01,-0.00,32.19
17224174,1888,1,216144,254082,1.41,0.13,9.91,-0.03,-0.01,-0.00,32.19
17264177,1909,1,216036,254040,1.42,0.12,9.93,-0.03,-0.01,-0.01,32.19
17304177,1907,1,216071,254312,1.41,0.14,9.92,-0.03,-0.01,-0.00,32.19
17344866,1881,1,216294,254414,1.43,0.14,9.93,-0.03,-0.01,-0.00,32.21
17383177,1914,1,216353,254810,1.41,0.13,9.90,-0.03,-0.01,-0.00,32.21
17423177,1916,1,216529,255040,1.41,0.11,9.91,-0.03,-0.01,-0.00,32.21
17463177,1905,1,216557,255182,1.41,0.13,9.92,-0.03,-0.01,-0.01,32.21
17503177,1867,1,216654,255273,1.38,0.14,9.90,-0.03,-0.01,-0.01,32.21
17543197,1867,1,216641,255622,1.42,0.13,9.91,-0.04,-0.01,-0.00,32.21
17583177,1831,1,216886,255855,1.40,0.13,9.90,-0.03,-0.01,-0.00,32.21
17623174,1823,1,216995,256186,1.42,0.12,9.92,-0.03,-0.01,-0.00,32.21
17663177,1835,1,217067,256457,1.42,0.13,9.87,-0.03,-0.01,-0.00,32.21
17703177,1787,1,217238,256621,1.42,0.13,9.88,-0.03,-0.01,-0.00,32.21
17743177,1826,1,217304,256834,1.41,0.12,9.90,-0.03,-0.01,-0.01,32.21
17783177,1833,1,217362,257160,1.40,0.11,9.92,-0.03,-0.01,-0.00,32.21
17823177,1792,1,217463,257487,1.42,0.12,9.90,-0.03,-0.01,-0.00,32.21
17863174,1833,1,217601,258000,1.40,0.12,9.92,-0.03,-0.01,-0.01,32.21
17903177,1840,1,217802,257457,1.40,0.13,9.90,-0.03,-0.01,-0.00,32.21
17943174,1829,1,217303,256117,1.41,0.12,9.89,-0.03,-0.01,-0.00,32.21
17983177,1853,1,216995,255391,1.42,0.12,9.90,-0.03,-0.01,-0.01,32.21
18023193,1872,1,216956,255484,1.40,0.12,9.92,-0.03,-0.01,-0.00,32.21
18063177,1879,1,217089,255797,1.40,0.11,9.91,-0.04,-0.01,-0.00,32.21
18103174,1890,1,217120,256023,1.41,0.11,9.92,-0.03,-0.01,-0.00,32.21
18143177,1834,1,217105,256354,1.40,0.11,9.90,-0.03,-0.01,-0.01,32.21
18183174,1863,1,217282,256734,1.41,0.12,9.90,-0.04,-0.01,-0.00,32.21
18223177,1885,1,217501,257286,1.42,0.13,9.90,-0.04,-0.01,-0.01,32.21
18263177,1872,1,217671,257888,1.40,0.12,9.91,-0.04,-0.01,-0.01,32.21
18303177,1856,1,217961,259103,1.41,0.12,9.90,-0.04,-0.01,-0.01,32.21
18343177,1781,1,218423,259946,1.40,0.13,9.90,-0.04,-0.02,-0.01,32.21
18383864,1807,1,218529,260465,1.42,0.11,9.91,-0.04,-0.01,-0.01,32.27
18422177,1797,1,218644,260684,1.42,0.10,9.91,-0.03,-0.02,-0.01,32.27
18462177,1822,1,218741,260849,1.41,0.12,9.88,-0.03,-0.01,-0.00,32.27
18502177,1805,1,218843,260887,1.43,0.12,9.89,-0.03,-0.01,-0.00,32.27
18542176,1845,1,218830,260993,1.43,0.13,9.89,-0.03,-0.01,-0.01,32.27
18582177,1833,1,218872,261143,1.43,0.12,9.89,-0.03,-0.01,-0.00,32.27
18622177,1877,1,218940,260394,1.42,0.12,9.90,-0.03,-0.01,-0.01,32.27
18662177,1857,1,218343,258361,1.42,0.13,9.89,-0.03,-0.01,-0.00,32.27
18702177,1890,1,217991,257923,1.42,0.10,9.92,-0.03,-0.01,-0.00,32.27
18742174,1895,1,218027,258233,1.43,0.11,9.90,-0.03,-0.01,-0.01,32.27
18782177,1906,1,218197,258505,1.43,0.12,9.90,-0.03,-0.01,-0.00,32.27
18822174,1904,1,218241,258698,1.41,0.11,9.91,-0.03,-0.01,-0.00,32.27
18862177,1893,1,218365,258994,1.43,0.10,9.90,-0.03,-0.01,-0.00,32.27
18902174,1923,1,218381,259060,1.41,0.12,9.92,-0.03,-0.01,-0.00,32.27
18942177,1935,1,218346,259041,1.43,0.12,9.89,-0.03,-0.01,-0.01,32.27
18982194,1909,1,218346,259153,1.41,0.11,9.90,-0.03,-0.01,-0.00,32.27
19022177,1872,1,218437,259447,1.43,0.13,9.93,-0.03,-0.01,-0.00,32.27
19062177,1895,1,218593,259886,1.41,0.11,9.92,-0.03,-0.01,-0.00,32.27
19102177,1920,1,218775,260253,1.41,0.11,9.90,-0.03,-0.01,-0.00,32.27
19142174,1863,1,218835,260494,1.41,0.13,9.90,-0.03,-0.01,-0.00,32.27
19182191,1873,1,218895,260668,1.42,0.12,9.92,-0.03,-0.01,-0.00,32.27
19222177,1887,1,218890,260850,1.41,0.11,9.88,-0.03,-0.01,-0.00,32.27
19262177,1863,1,218910,260971,1.39,0.11,9.89,-0.03,-0.01,-0.00,32.27
19302177,1839,1,218946,260637,1.41,0.11,9.91,-0.03,-0.01,-0.01,32.27
19342177,1869,1,218495,258680,1.42,0.13,9.89,-0.03,-0.01,-0.01,32.27
19382177,1869,1,218037,257894,1.41,0.12,9.90,-0.03,-0.01,-0.01,32.27
19422863,1840,1,217874,257954,1.40,0.14,9.90,-0.03,-0.01,-0.00,32.17
19463174,1872,1,217950,258249,1.41,0.13,9.89,-0.03,-0.01,-0.00,32.17
19503177,1847,1,218015,258400,1.42,0.12,9.92,-0.03,-0.01,-0.00,32.17
19543177,1843,1,218017,258629,1.42,0.13,9.90,-0.03,-0.01,-0.00,32.17
19583177,1825,1,218130,258817,1.42,0.12,9.91,-0.03,-0.01,-0.01,32.17
19623177,1805,1,218098,258743,1.41,0.12,9.92,-0.03,-0.01,-0.00,32.17
19663176,1814,1,218114,258750,1.41,0.11,9.90,-0.03,-0.01,-0.00,32.17
19703174,1809,1,218134,258913,1.42,0.13,9.91,-0.03,-0.01,-0.00,32.17
19741177,1875,1,218210,259101,1.43,0.11,9.91,-0.03,-0.01,-0.00,32.17
19781177,1854,1,218304,259176,1.43,0.13,9.90,-0.03,-0.01,-0.00,32.17
19821177,1871,1,218271,259179,1.43,0.13,9.91,-0.03,-0.01,-0.01,32.17
19861177,1878,1,218316,259293,1.40,0.10,9.90,-0.03,-0.01,-0.00,32.17
19901177,1872,1,218348,259369,1.41,0.11,9.90,-0.03,-0.01,-0.00,32.17
19941177,1863,1,218405,259513,1.43,0.12,9.91,-0.03,-0.01,-0.00,32.17
19981177,1847,1,218498,259646,1.40,0.11,9.90,-0.03,-0.01,-0.00,32.17
20021181,1834,1,218483,259193,1.42,0.13,9.92,-0.03,-0.01,-0.01,32.17
20061176,1813,1,218040,257676,1.42,0.13,9.90,-0.03,-0.01,-0.00,32.17
20101174,1817,1,217592,256864,1.40,0.14,9.90,-0.03,-0.01,-0.00,32.17
20141176,1789,1,217449,256735,1.40,0.12,9.91,-0.03,-0.01,-0.00,32.17
20181177,1797,1,217465,256870,1.41,0.11,9.92,-0.03,-0.01,-0.00,32.17
20221176,1760,1,217477,257001,1.40,0.13,9.92,-0.03,-0.01,-0.00,32.17
20261177,1797,1,217493,257263,1.41,0.11,9.88,-0.03,-0.01,-0.00,32.17
20301177,1808,1,217586,257429,1.40,0.12,9.90,-0.03,-0.01,-0.00,32.17
20341174,1756,1,217578,257390,1.44,0.12,9.90,-0.03,-0.01,-0.00,32.17
20381177,1792,1,217547,257519,1.43,0.11,9.90,-0.03,-0.01,-0.00,32.17
20421177,1799,1,217558,257755,1.41,0.12,9.92,-0.03,-0.01,-0.01,32.17
20461863,1770,1,217733,258079,1.41,0.13,9.89,-0.03,-0.01,-0.00,31.99
20502177,1795,1,217788,258431,1.41,0.14,9.89,-0.03,-0.01,-0.00,31.99
20542176,1793,1,217860,258803,1.41,0.14,9.91,-0.03,-0.01,-0.00,31.99
20582177,1809,1,218015,259034,1.41,0.12,9.90,-0.03,-0.01,-0.00,31.99
20622207,1837,1,218067,259290,1.42,0.11,9.91,-0.03,-0.01,-0.01,31.99
20662177,1858,1,218194,259652,1.41,0.13,9.90,-0.03,-0.01,-0.00,31.99
20702177,1904,1,218328,259927,1.40,0.11,9.90,-0.03,-0.01,-0.00,31.99
20742174,1926,1,218324,259173,1.41,0.11,9.91,-0.03,-0.01,-0.01,31.99
20782177,1937,1,217816,257754,1.40,0.12,9.90,-0.03,-0.01,-0.00,31.99
20822209,1919,1,217424,257153,1.40,0.12,9.92,-0.03,-0.01,-0.00,31.99
20862177,1914,1,217377,257207,1.41,0.13,9.91,-0.03,-0.01,-0.00,31.99
20902177,1942,1,217351,257378,1.40,0.13,9.91,-0.03,-0.01,-0.00,31.99
20942177,1906,1,217442,257565,1.42,0.12,9.91,-0.03,-0.01,-0.00,31.99
20982176,1910,1,217542,257855,1.38,0.13,9.89,-0.03,-0.01,-0.00,31.99
21022177,1947,1,217640,258016,1.41,0.12,9.90,-0.03,-0.01,-0.00,31.99
21062174,1952,1,217636,258019,1.43,0.11,9.92,-0.03,-0.01,-0.01,31.99
21102177,1968,1,217657,258071,1.42,0.12,9.90,-0.03,-0.01,-0.00,31.99
21142174,1971,1,217784,258399,1.41,0.12,9.91,-0.03,-0.01,-0.01,31.99
21182177,1962,1,217901,258737,1.41,0.13,9.90,-0.03,-0.01,-0.00,31.99
21222175,1977,1,218002,259011,1.41,0.11,9.90,-0.03,-0.01,-0.00,31.99
21262176,1941,1,218152,259223,1.43,0.13,9.86,-0.03,-0.01,-0.00,31.99
21302177,1930,1,218242,259435,1.41,0.12,9.88,-0.03,-0.01,-0.00,31.99
21342176,1949,1,218268,259731,1.42,0.11,9.91,-0.03,-0.01,-0.01,31.99
21382177,1921,1,218386,259950,1.40,0.11,9.91,-0.03,-0.01,-0.00,31.99
21422177,1909,1,218300,258974,1.44,0.11,9.92,-0.03,-0.01,-0.00,31.99
21462863,1907,1,217808,257645,1.42,0.11,9.91,-0.03,-0.01,-0.00,32.03
21501176,1873,1,217509,257268,1.42,0.13,9.88,-0.03,-0.01,-0.00,32.03
21541177,1894,1,217543,257554,1.42,0.12,9.92,-0.03,-0.01,-0.00,32.03
21581176,1863,1,217653,257674,1.42,0.12,9.90,-0.03,-0.01,-0.00,32.03
21621177,1889,1,217652,257931,1.43,0.12,9.89,-0.03,-0.01,-0.00,32.03
21661176,1877,1,217786,258223,1.43,0.13,9.90,-0.03,-0.01,-0.00,32.03
21701174,1886,1,217812,258235,1.42,0.13,9.90,-0.03,-0.01,-0.00,32.03
21741176,1856,1,217764,258219,1.41,0.12,9.91,-0.03,-0.01,-0.00,32.03
21781177,1872,1,217776,258382,1.43,0.11,9.90,-0.03,-0.01,-0.00,32.03
21821176,1859,1,217855,258674,1.42,0.12,9.90,-0.03,-0.01,-0.00,32.03
21861174,1845,1,217947,258934,1.41,0.11,9.90,-0.03,-0.01,-0.00,32.03
21901177,1877,1,217992,259121,1.40,0.12,9.93,-0.03,-0.01,-0.01,32.03
21941177,1882,1,218039,259301,1.41,0.13,9.91,-0.03,-0.01,-0.00,32.03
21981177,1871,1,218135,259480,1.42,0.12,9.92,-0.03,-0.01,-0.01,32.03
22021184,1893,1,218190,259639,1.42,0.11,9.89,-0.03,-0.01,-0.00,32.03
22061177,1840,1,218264,259503,1.39,0.13,9.89,-0.03,-0.01,-0.01,32.03
22101177,1863,1,217879,258056,1.43,0.14,9.92,-0.03,-0.01,-0.01,32.03
22141177,1797,1,217469,257162,1.42,0.13,9.90,-0.03,-0.01,-0.00,32.03
22181174,1817,1,217307,257052,1.40,0.12,9.90,-0.03,-0.01,-0.01,32.03
22221177,1817,1,217337,257176,1.41,0.11,9.89,-0.03,-0.01,-0.00,32.03
22261227,1827,1,217392,257302,1.40,0.12,9.89,-0.03,-0.01,-0.00,32.03
22301177,1794,1,217448,257526,1.42,0.13,9.90,-0.03,-0.01,-0.00,32.03
22341174,1833,1,217554,257721,1.41,0.13,9.90,-0.03,-0.01,-0.00,32.03
22381177,1849,1,217583,257635,1.41,0.12,9.92,-0.03,-0.01,-0.00,32.03
22421177,1810,1,217538,257614,1.42,0.13,9.91,-0.03,-0.01,-0.00,32.03
22461227,1798,1,217568,257827,1.41,0.11,9.90,-0.03,-0.01,-0.00,32.03
22501861,1782,1,217658,258145,1.41,0.12,9.91,-0.03,-0.01,-0.01,32.03
22540177,1879,1,217750,258423,1.40,0.11,9.89,-0.03,-0.01,-0.00,32.03
22580177,1904,1,217838,258684,1.43,0.12,9.90,-0.03,-0.01,-0.00,32.03
22620176,1936,1,217900,258914,1.43,0.12,9.91,-0.03,-0.01,-0.01,32.03
22660177,1934,1,217949,259112,1.41,0.12,9.89,-0.03,-0.01,-0.01,32.03
22701176,1903,1,218021,259171,1.44,0.12,9.91,-0.03,-0.01,-0.00,32.03
22741177,1866,1,217986,258825,1.41,0.14,9.90,-0.03,-0.01,-0.00,32.03
22781177,1884,1,217609,257388,1.43,0.13,9.91,-0.03,-0.01,-0.00,32.03
22821177,1846,1,217208,256596,1.42,0.13,9.90,-0.03,-0.01,-0.00,32.03
22861176,1853,1,217069,256548,1.41,0.11,9.90,-0.03,-0.01,-0.00,32.03
22901177,1880,1,217098,256690,1.41,0.10,9.87,-0.03,-0.01,-0.01,32.03
22941177,1876,1,217094,256726,1.41,0.11,9.91,-0.03,-0.01,-0.00,32.03
22981177,1904,1,217202,257027,1.45,0.12,9.94,-0.03,-0.01,-0.00,32.03
23021184,1903,1,217259,257290,1.41,0.11,9.90,-0.03,-0.01,-0.00,32.03
23061176,1887,1,217294,257369,1.40,0.12,9.92,-0.03,-0.01,-0.00,32.03
23101176,1882,1,217352,257463,1.41,0.11,9.89,-0.03,-0.01,-0.00,32.03
23141176,1887,1,217413,257703,1.44,0.11,9.90,-0.03,-0.01,-0.00,32.03
23181176,1885,1,217452,257947,1.41,0.12,9.90,-0.03,-0.01,-0.00,32.03
23221177,1874,1,217542,258162,1.42,0.11,9.90,-0.03,-0.01,-0.00,32.03
23261176,1857,1,217607,258387,1.41,0.11,9.89,-0.03,-0.01,-0.00,32.03
23301177,1877,1,217715,258516,1.41,0.12,9.94,-0.03,-0.01,-0.00,32.03
23341176,1857,1,217779,258700,1.42,0.11,9.91,-0.03,-0.01,-0.01,32.03
23381177,1872,1,217847,258918,1.43,0.13,9.90,-0.03,-0.01,-0.01,32.03
23421176,1869,1,217845,258953,1.42,0.11,9.89,-0.03,-0.01,-0.01,32.03
23461176,1858,1,217695,257811,1.42,0.12,9.90,-0.03,-0.01,-0.00,32.03
23501177,1827,1,217276,256588,1.41,0.13,9.92,-0.03,-0.01,-0.00,32.03
23541863,1808,1,217016,256299,1.44,0.11,9.90,-0.03,-0.01,-0.01,31.97
23580177,1853,1,217058,256348,1.42,0.13,9.90,-0.03,-0.01,-0.00,31.97
23620174,1872,1,217025,256404,1.41,0.12,9.90,-0.03,-0.01,-0.00,31.97
23660176,1863,1,217138,256614,1.42,0.12,9.90,-0.03,-0.01,-0.01,31.97
23701177,1831,1,217197,256931,1.41,0.10,9.91,-0.03,-0.01,-0.01,31.97
23741177,1840,1,217248,257100,1.43,0.13,9.95,-0.03,-0.01,-0.00,31.97
23781177,1820,1,217299,257169,1.41,0.13,9.91,-0.03,-0.01,-0.00,31.97
23821177,1882,1,217300,257434,1.42,0.13,9.91,-0.03,-0.01,-0.00,31.97
23861177,1918,1,217435,257689,1.41,0.12,9.90,-0.03,-0.01,-0.00,31.97
23901197,1898,1,217534,257939,1.42,0.13,9.89,-0.03,-0.01,-0.00,31.97
23941177,1891,1,217600,258190,1.43,0.10,9.91,-0.03,-0.01,-0.00,31.97
23981177,1878,1,217627,258412,1.41,0.12,9.88,-0.03,-0.01,-0.00,31.97
24021185,1856,1,217522,258580,1.43,0.11,9.90,-0.03,-0.01,-0.01,31.97
24061177,1815,1,217572,258852,1.43,0.12,9.91,-0.03,-0.01,-0.00,31.97
24101198,1781,1,217678,259062,1.43,0.13,9.92,-0.03,-0.01,-0.00,31.97
24141176,1765,1,217738,259249,1.41,0.12,9.91,-0.03,-0.01,-0.00,31.97
24181177,1776,1,217645,258250,1.44,0.11,9.91,-0.03,-0.01,-0.01,31.97
24221177,1763,1,217206,257034,1.42,0.12,9.90,-0.03,-0.01,-0.00,31.97
24261174,1793,1,216961,256603,1.41,0.10,9.90,-0.03,-0.01,-0.00,31.97
24301204,1838,1,216967,256693,1.43,0.12,9.90,-0.03,-0.01,-0.00,31.97
24341174,1833,1,216972,256804,1.43,0.10,9.90,-0.03,-0.01,-0.00,31.97
24381177,1866,1,216961,257004,1.42,0.12,9.90,-0.03,-0.01,-0.00,31.97
24421174,1814,1,217089,257339,1.43,0.11,9.92,-0.03,-0.01,-0.00,31.97
24459176,1951,1,217213,257421,1.40,0.11,9.90,-0.03,-0.01,-0.01,31.97
24499174,1939,1,217192,257399,1.42,0.12,9.93,-0.03,-0.01,-0.00,31.97
24539176,1931,1,217208,257555,1.43,0.11,9.91,-0.03,-0.01,-0.00,31.97
24579864,1857,1,217346,257829,1.42,0.11,9.90,-0.03,-0.01,-0.00,32.05
24620177,1868,1,217477,257905,1.41,0.13,9.91,-0.03,-0.01,-0.00,32.05
24660177,1875,1,217587,258180,1.41,0.11,9.91,-0.03,-0.01,-0.00,32.05
24700176,1922,1,217728,258273,1.41,0.13,9.88,-0.03,-0.01,-0.00,32.05
24739177,2000,1,217707,258491,1.41,0.11,9.91,-0.03,-0.01,-0.00,32.05
24779177,2047,1,217782,258667,1.41,0.10,9.89,-0.03,-0.01,-0.00,32.05
24819176,2019,1,217760,258797,1.40,0.12,9.93,-0.03,-0.01,-0.00,32.05
24859177,2000,1,217777,258167,1.42,0.12,9.94,-0.03,-0.01,-0.00,32.05
24899177,1995,1,217322,256904,1.41,0.12,9.90,-0.03,-0.01,-0.01,32.05
24939177,2015,1,217018,256336,1.42,0.12,9.90,-0.03,-0.01,-0.00,32.05
24979177,1970,1,216876,256372,1.42,0.11,9.91,-0.03,-0.01,-0.00,32.05
25019176,1921,1,216861,256458,1.42,0.12,9.89,-0.03,-0.01,-0.00,32.05
25059177,1894,1,216899,256619,1.41,0.12,9.89,-0.03,-0.01,-0.00,32.05
25099176,1853,1,216970,256929,1.41,0.10,9.89,-0.03,-0.01,-0.01,32.05
25139177,1854,1,216998,257039,1.41,0.12,9.91,-0.03,-0.01,-0.00,32.05
25179176,1904,1,216961,256990,1.42,0.13,9.90,-0.03,-0.01,-0.00,32.05
25219177,1901,1,217025,257097,1.43,0.11,9.90,-0.03,-0.01,-0.00,32.05
25259176,1904,1,217114,257458,1.40,0.13,9.90,-0.03,-0.01,-0.01,32.05
25299174,1911,1,217205,257744,1.41,0.11,9.90,-0.03,-0.01,-0.01,32.05
25339177,1959,1,217316,258003,1.41,0.12,9.90,-0.03,-0.01,-0.00,32.05
25379174,1950,1,217394,258237,1.41,0.13,9.90,-0.03,-0.01,-0.00,32.05
25419177,1975,1,217432,258354,1.41,0.11,9.90,-0.03,-0.01,-0.00,32.05
25459177,1926,1,217458,258525,1.41,0.11,9.87,-0.03,-0.01,-0.00,32.05
25499177,1893,1,217507,258679,1.40,0.12,9.91,-0.03,-0.01,-0.00,32.05
25539191,1899,1,217563,258497,1.41,0.12,9.88,-0.03,-0.01,-0.00,32.05
25579863,1849,1,217276,257030,1.42,0.12,9.91,-0.03,-0.01,-0.00,31.89
25620177,1843,1,216837,256111,1.42,0.11,9.89,-0.03,-0.01,-0.00,31.89
25660176,1855,1,216698,255976,1.43,0.14,9.91,-0.03,-0.01,-0.00,31.89
25700177,1871,1,216705,256052,1.42,0.12,9.90,-0.03,-0.01,-0.01,31.89
25741189,1869,1,216777,256064,1.41,0.13,9.90,-0.03,-0.01,-0.00,31.89
25779174,1927,1,216776,256327,1.40,0.12,9.91,-0.03,-0.01,-0.00,31.89
25819177,1907,1,216976,256562,1.41,0.12,9.90,-0.03,-0.01,-0.00,31.89
25859177,1968,1,217044,256576,1.41,0.10,9.90,-0.03,-0.01,-0.00,31.89
25899177,1984,1,217007,256663,1.42,0.13,9.93,-0.03,-0.01,-0.01,31.89
25939194,1973,1,217073,256886,1.41,0.10,9.89,-0.03,-0.01,-0.00,31.89
25979177,1947,1,217180,257260,1.43,0.12,9.89,-0.03,-0.01,-0.00,31.89
26019177,1927,1,217251,257545,1.43,0.12,9.91,-0.03,-0.01,-0.00,31.89
26059177,1906,1,217287,257825,1.42,0.11,9.88,-0.03,-0.01,-0.00,31.89
26099177,1859,1,217384,258007,1.43,0.12,9.89,-0.03,-0.01,-0.00,31.89
26139176,1845,1,217409,258147,1.42,0.13,9.90,-0.03,-0.01,-0.00,31.89
26179174,1840,1,217478,258299,1.43,0.13,9.87,-0.03,-0.01,-0.00,31.89
26219176,1840,1,217536,258514,1.42,0.12,9.90,-0.03,-0.01,-0.00,31.89
26259177,1857,1,217638,258790,1.41,0.11,9.87,-0.03,-0.01,-0.00,31.89
26299176,1855,1,217698,259072,1.43,0.13,9.90,-0.03,-0.01,-0.00,31.89
26339174,1856,1,217674,258209,1.43,0.14,9.89,-0.03,-0.01,-0.00,31.89
26379177,1865,1,217182,256657,1.43,0.13,9.89,-0.03,-0.01,-0.00,31.89
26419177,1897,1,216815,256061,1.45,0.11,9.90,-0.03,-0.01,-0.00,31.89
26459177,1952,1,216829,256057,1.42,0.11,9.92,-0.03,-0.01,-0.00,31.89
26499177,2039,1,216872,256077,1.41,0.11,9.91,-0.03,-0.01,-0.00,31.89
26539176,2079,1,216734,256224,1.44,0.11,9.93,-0.03,-0.01,-0.00,31.89
26579177,1915,1,216732,256611,1.42,0.11,9.93,-0.03,-0.01,-0.00,31.89
26619863,1839,1,216785,256808,1.44,0.13,9.91,-0.03,-0.01,-0.00,31.83
26660177,1786,1,216907,256873,1.44,0.11,9.88,-0.03,-0.01,-0.00,31.83
26700176,1841,1,216925,257027,1.42,0.12,9.90,-0.03,-0.01,-0.00,31.83
26740174,1841,1,216960,257298,1.42,0.12,9.90,-0.03,-0.01,-0.00,31.83
26779177,1867,1,217144,257609,1.41,0.12,9.90,-0.03,-0.01,-0.01,31.83
26819177,1873,1,217241,257856,1.44,0.11,9.92,-0.03,-0.01,-0.00,31.83
26859176,1846,1,217317,258121,1.44,0.11,9.90,-0.03,-0.01,-0.00,31.83
26899174,1810,1,217413,258352,1.42,0.11,9.92,-0.03,-0.01,-0.01,31.83
26939177,1797,1,217468,258459,1.43,0.13,9.91,-0.03,-0.01,-0.01,31.83
26979177,1758,1,217566,258643,1.44,0.12,9.92,-0.03,-0.01,-0.00,31.83
27019177,1788,1,217626,258804,1.41,0.13,9.92,-0.03,-0.01,-0.00,31.83
27059177,1776,1,217662,258950,1.43,0.11,9.89,-0.03,-0.01,-0.00,31.83
27099177,1783,1,217798,259063,1.44,0.12,9.91,-0.03,-0.01,-0.00,31.83
27139177,1830,1,217577,257698,1.44,0.11,9.89,-0.03,-0.01,-0.00,31.83
27179177,1887,1,217107,256392,1.43,0.11,9.92,-0.03,-0.01,-0.00,31.83
27219177,1936,1,216818,256146,1.42,0.12,9.90,-0.03,-0.01,-0.01,31.83
27259177,1936,1,216826,256290,1.42,0.13,9.89,-0.03,-0.01,-0.00,31.83
27299177,1927,1,216873,256478,1.43,0.13,9.89,-0.03,-0.01,-0.00,31.83
27339177,1955,1,216889,256668,1.40,0.12,9.90,-0.03,-0.01,-0.00,31.83
27379192,1941,1,216924,256991,1.42,0.12,9.90,-0.03,-0.01,-0.01,31.83
27419177,1890,1,217003,257160,1.44,0.13,9.91,-0.03,-0.01,-0.00,31.83
27459177,1878,1,217008,257262,1.43,0.13,9.92,-0.03,-0.01,-0.00,31.83
27499176,1871,1,217067,257452,1.43,0.11,9.91,-0.03,-0.01,-0.01,31.83
27539177,1855,1,217081,257824,1.41,0.12,9.91,-0.03,-0.01,-0.01,31.83
27579177,1844,1,217337,258235,1.42,0.12,9.91,-0.03,-0.01,-0.01,31.83
27619863,1889,1,217410,258538,1.43,0.10,9.91,-0.03,-0.01,-0.00,31.91
27658177,2030,1,217555,258861,1.42,0.10,9.91,-0.03,-0.01,-0.00,31.91
27698174,2046,1,217616,258974,1.41,0.11,9.92,-0.03,-0.01,-0.00,31.91
27738176,2019,1,217566,259125,1.43,0.11,9.92,-0.03,-0.01,-0.00,31.91
27778177,1938,1,217688,259129,1.41,0.11,9.90,-0.03,-0.01,-0.00,31.91
27819177,1950,1,217578,258959,1.43,0.13,9.89,-0.03,0.01,-0.00,31.91
27859168,1887,1,217365,257835,1.39,0.12,9.92,-0.03,0.02,-0.00,31.91
27899168,1886,1,216780,256006,1.40,0.07,9.90,-0.03,-0.00,-0.00,31.91
27939174,1856,1,216215,254842,1.38,0.11,9.94,-0.03,-0.02,-0.00,31.91
27979177,1867,1,216011,254571,1.39,0.14,9.92,-0.03,-0.01,-0.01,31.91
28019177,1857,1,215996,254553,1.41,0.12,9.90,-0.03,-0.02,-0.00,31.91
28059176,1869,1,216099,254500,1.39,0.12,9.91,-0.03,-0.01,-0.00,31.91
28099177,1947,1,216112,254720,1.40,0.11,9.90,-0.03,-0.02,-0.01,31.91
28139177,1897,1,216096,254690,1.40,0.13,9.90,-0.03,-0.02,-0.00,31.91
28179174,1735,1,216289,254585,1.44,0.16,9.82,-0.03,-0.02,-0.00,31.91
28219176,1838,1,216211,254584,1.41,0.12,9.90,-0.03,-0.02,-0.00,31.91
28259174,1977,1,216461,254691,1.42,0.10,9.98,-0.04,-0.02,-0.00,31.91
28299176,2196,1,216275,254763,1.44,0.11,9.79,-0.03,-0.03,-0.00,31.91
28339177,2075,1,216280,255194,1.52,0.12,9.86,-0.03,0.01,-0.00,31.91
28379168,2029,1,216396,255322,1.40,0.11,10.03,-0.03,-0.01,-0.00,31.91
28419174,1977,1,216431,255530,1.44,0.11,9.87,-0.03,-0.01,-0.00,31.91
28459177,1979,1,216450,255441,1.42,0.13,9.90,-0.03,-0.01,-0.00,31.91
28499174,2000,1,216329,255270,1.40,0.12,9.94,-0.03,-0.02,-0.00,31.91
28539177,2000,1,215888,254931,1.42,0.11,9.92,-0.02,-0.06,0.00,31.91
28579164,1725,1,214807,254254,1.47,0.18,9.84,-0.03,-0.03,-0.00,31.91
28619177,1225,1,214337,252692,1.44,0.15,9.87,-0.03,-0.00,-0.00,31.91
28659861,965,1,214102,251803,1.44,0.14,9.91,-0.03,0.00,-0.00,31.89
28698168,977,1,213773,252246,1.45,0.13,9.90,-0.04,0.01,-0.00,31.89
28738164,976,1,214402,252901,1.47,0.13,9.89,-0.04,-0.00,-0.01,31.89
28778177,1175,1,214735,253398,1.44,0.13,9.90,-0.04,-0.00,-0.00,31.89
28819174,1387,1,214802,254119,1.43,0.13,9.91,-0.04,-0.00,-0.01,31.89
28859176,1535,1,215202,254553,1.45,0.13,9.90,-0.04,-0.01,-0.00,31.89
28899177,1739,1,215297,254714,1.44,0.13,9.89,-0.03,-0.00,-0.00,31.89
28939177,1920,1,215374,254826,1.41,0.11,9.90,-0.03,-0.01,-0.00,31.89
28979174,2080,1,215448,255124,1.42,0.14,9.89,-0.03,-0.01,-0.00,31.89
29019217,2196,1,215577,255562,1.41,0.12,9.91,-0.03,-0.01,-0.01,31.89
29057177,2321,1,215745,256001,1.43,0.13,9.92,-0.03,-0.01,-0.00,31.89
29097177,2349,1,215919,256342,1.43,0.13,9.87,-0.03,-0.01,-0.00,31.89
29137177,2368,1,216049,256598,1.42,0.14,9.90,-0.03,-0.01,-0.00,31.89
29177177,2341,1,216199,256918,1.43,0.14,9.90,-0.04,-0.01,-0.00,31.89
29217192,2370,1,216359,257235,1.42,0.12,9.90,-0.03,-0.01,-0.01,31.89
29257177,2384,1,216480,257506,1.42,0.13,9.89,-0.03,-0.01,-0.00,31.89
29297177,2401,1,216618,257836,1.44,0.14,9.89,-0.03,-0.01,-0.00,31.89
29337176,2361,1,216789,257915,1.42,0.14,9.91,-0.03,-0.01,-0.00,31.89
29377177,2338,1,216425,256251,1.43,0.12,9.91,-0.03,-0.01,-0.01,31.89
29417177,2334,1,215905,254997,1.44,0.13,9.89,-0.03,-0.01,-0.01,31.89
29457177,2261,1,215644,254592,1.43,0.13,9.90,-0.03,-0.01,-0.00,31.89
29497177,2246,1,215632,254684,1.41,0.12,9.93,-0.03,-0.01,-0.00,31.89
29537177,2208,1,215697,254841,1.43,0.14,9.90,-0.03,-0.01,-0.00,31.89
29577177,2180,1,215791,255056,1.43,0.11,9.91,-0.03,-0.01,-0.00,31.89
29617177,2149,1,215887,255413,1.43,0.14,9.90,-0.03,-0.01,-0.00,31.89
29657176,2134,1,215983,255583,1.43,0.13,9.92,-0.03,-0.01,-0.01,31.89
29697863,2008,1,215993,255654,1.43,0.11,9.90,-0.03,-0.01,-0.00,31.91
29738176,2031,1,216064,255876,1.42,0.13,9.89,-0.03,-0.01,-0.00,31.91
29778176,1965,1,216043,256186,1.41,0.13,9.90,-0.03,-0.01,-0.00,31.91
29818177,1942,1,216124,256495,1.43,0.13,9.89,-0.03,-0.01,-0.00,31.91
29858177,1903,1,216284,256863,1.42,0.14,9.90,-0.03,-0.01,-0.00,31.91
29898176,1890,1,216455,257261,1.42,0.12,9.89,-0.03,-0.01,-0.00,31.91
29938177,1888,1,216505,257548,1.44,0.13,9.89,-0.03,-0.01,-0.00,31.91
29978177,1872,1,216606,257891,1.42,0.16,9.89,-0.03,-0.01,-0.00,31.91
30018177,1856,1,216716,258267,1.44,0.14,9.92,-0.03,-0.01,-0.00,31.91
30058176,1840,1,216800,258587,1.44,0.13,9.91,-0.03,-0.01,-0.00,31.91
30098177,1824,1,216832,258860,1.44,0.13,9.91,-0.03,-0.01,-0.01,31.91
30138176,1808,1,216857,259090,1.44,0.14,9.90,-0.03,-0.01,-0.00,31.91
30178177,1770,1,216900,258668,1.44,0.14,9.90,-0.03,-0.01,-0.00,31.91
30218176,1751,1,216257,256583,1.42,0.14,9.92,-0.03,-0.01,-0.01,31.91
30258177,1730,1,215659,255689,1.43,0.11,9.91,-0.03,-0.01,-0.00,31.91
30298176,1684,1,215662,255779,1.44,0.14,9.93,-0.03,-0.01,-0.00,31.91
30338177,1717,1,215748,256063,1.42,0.14,9.91,-0.03,-0.01,-0.00,31.91
30378176,1777,1,215828,256043,1.42,0.12,9.91,-0.03,-0.01,-0.00,31.91
30418177,1794,1,215779,256297,1.43,0.12,9.92,-0.03,-0.01,-0.01,31.91
30458176,1843,1,216020,256603,1.41,0.13,9.90,-0.03,-0.01,-0.00,31.91
30498174,1841,1,216089,256744,1.43,0.12,9.91,-0.03,-0.01,-0.00,31.91
30538177,1884,1,216149,256825,1.43,0.15,9.90,-0.03,-0.01,-0.00,31.91
30578177,1926,1,216124,257129,1.43,0.13,9.90,-0.03,-0.01,-0.00,31.91
30618176,1946,1,216210,257553,1.43,0.13,9.91,-0.03,-0.01,-0.00,31.91
30658221,1947,1,216351,258054,1.45,0.13,9.88,-0.03,-0.01,-0.00,31.91
30698863,1920,1,216565,258362,1.42,0.13,9.90,-0.03,-0.01,-0.01,32.03
30737176,1993,1,216656,258718,1.43,0.13,9.91,-0.03,-0.01,-0.00,32.03
30777176,1984,1,216830,259082,1.43,0.14,9.91,-0.03,-0.01,-0.01,32.03
30817176,2023,1,216967,259347,1.41,0.14,9.92,-0.03,-0.01,-0.01,32.03
30857201,2047,1,217044,259624,1.42,0.14,9.89,-0.03,-0.01,-0.00,32.03
30897176,2032,1,217026,259933,1.43,0.13,9.91,-0.03,-0.01,-0.00,32.03
30937176,2005,1,217177,260242,1.40,0.13,9.88,-0.03,-0.01,-0.00,32.03
30977174,2027,1,217213,259402,1.42,0.14,9.92,-0.03,-0.01,-0.00,32.03
31017176,2075,1,216491,257278,1.40,0.14,9.90,-0.03,-0.01,-0.00,32.03
31057174,2047,1,215931,256706,1.42,0.14,9.91,-0.03,-0.01,-0.01,32.03
31097176,1998,1,215950,257014,1.45,0.12,9.91,-0.03,-0.01,-0.00,32.03
31137177,1999,1,216062,257389,1.43,0.14,9.90,-0.03,-0.01,-0.00,32.03
31177177,1992,1,216203,257669,1.41,0.13,9.90,-0.04,-0.01,-0.00,32.03
31217177,2019,1,216340,258158,1.42,0.11,9.90,-0.03,-0.01,-0.01,32.03
31257176,1985,1,216534,258478,1.42,0.13,9.94,-0.03,-0.01,-0.01,32.03
31297177,2009,1,216657,258577,1.38,0.11,9.92,-0.03,-0.01,-0.01,32.03
31337176,1983,1,216770,258780,1.39,0.11,9.99,-0.03,-0.00,-0.00,32.03
31377176,2011,1,216863,259121,1.41,0.14,9.90,-0.03,-0.01,-0.01,32.03
31417176,2032,1,216968,259638,1.43,0.12,9.90,-0.03,-0.01,-0.00,32.03
31457177,2047,1,217115,260006,1.43,0.13,9.90,-0.03,-0.01,-0.00,32.03
31497176,2015,1,217339,260342,1.42,0.13,9.90,-0.03,-0.01,-0.00,32.03
31537174,2039,1,217426,260569,1.41,0.13,9.89,-0.03,-0.01,-0.00,32.03
31577177,2000,1,217482,260758,1.41,0.14,9.90,-0.03,-0.01,-0.00,32.03
31617177,2033,1,217619,260908,1.42,0.13,9.90,-0.03,-0.01,-0.01,32.03
31657177,2057,1,217720,260922,1.41,0.14,9.93,-0.03,-0.01,-0.01,32.03
31697177,2053,1,217586,259729,1.41,0.12,9.90,-0.03,-0.01,-0.00,32.03
31737863,1986,1,216785,257622,1.42,0.12,9.90,-0.03,-0.01,-0.00,31.99
31776175,2066,1,216354,257220,1.44,0.12,9.91,-0.03,-0.01,-0.00,31.99
31816177,2058,1,216451,257517,1.42,0.12,9.93,-0.03,-0.01,-0.00,31.99
31856177,2119,1,216532,257965,1.43,0.13,9.89,-0.03,-0.01,-0.00,31.99
31896176,2120,1,216666,258238,1.41,0.12,9.90,-0.03,-0.01,-0.01,31.99
31936177,2109,1,216849,258811,1.43,0.14,9.90,-0.03,-0.01,-0.01,31.99
31976176,2102,1,216978,258960,1.43,0.13,9.89,-0.03,-0.01,-0.00,31.99
32016177,2090,1,216948,258945,1.42,0.12,9.90,-0.03,-0.01,-0.01,31.99
32056176,2065,1,216955,259095,1.43,0.11,9.90,-0.03,-0.01,-0.00,31.99
32096177,2067,1,217048,259499,1.43,0.11,9.91,-0.03,-0.01,-0.00,31.99
32136177,2039,1,217260,259939,1.42,0.11,9.90,-0.03,-0.01,-0.00,31.99
32176177,2042,1,217334,260257,1.43,0.14,9.87,-0.03,-0.01,-0.00,31.99
32216177,2014,1,217431,260534,1.43,0.12,9.91,-0.03,-0.01,-0.00,31.99
32256177,1993,1,217497,260661,1.44,0.13,9.90,-0.03,-0.01,-0.00,31.99
32296228,2003,1,217538,260831,1.42,0.13,9.89,-0.03,-0.01,-0.00,31.99
32336177,1963,1,217432,260981,1.42,0.12,9.91,-0.03,-0.01,-0.00,31.99
32376176,1962,1,217526,261106,1.40,0.12,9.89,-0.03,-0.01,-0.00,31.99
32416177,1966,1,217513,259982,1.42,0.12,9.90,-0.03,-0.01,-0.01,31.99
32456177,2003,1,216833,257969,1.44,0.13,9.91,-0.03,-0.01,-0.00,31.99
32496217,2023,1,216420,257458,1.42,0.12,9.90,-0.03,-0.01,-0.00,31.99
32536176,2063,1,216445,257687,1.43,0.14,9.91,-0.03,-0.01,-0.01,31.99
32576177,2009,1,216527,257959,1.43,0.13,9.90,-0.03,-0.01,-0.00,31.99
32616176,2039,1,216603,258118,1.41,0.11,9.90,-0.03,-0.01,-0.00,31.99
32656174,2005,1,216670,258532,1.42,0.12,9.90,-0.03,-0.01,-0.00,31.99
32696176,1989,1,216735,258696,1.40,0.12,9.90,-0.03,-0.01,-0.00,31.99
32736174,1942,1,216776,258690,1.42,0.14,9.92,-0.03,-0.01,-0.00,31.99
32776864,1859,1,216749,258743,1.43,0.11,9.91,-0.03,-0.01,-0.00,31.99
32817177,1814,1,216761,258993,1.43,0.12,9.90,-0.03,-0.01,-0.01,31.99
32857176,1808,1,216852,259311,1.43,0.12,9.91,-0.03,-0.01,-0.00,31.99
32897177,1804,1,216907,259628,1.43,0.12,9.90,-0.03,-0.01,-0.00,31.99
32937176,1826,1,217029,259894,1.43,0.12,9.91,-0.03,-0.01,-0.01,31.99
32977177,1785,1,216927,260087,1.41,0.12,9.91,-0.03,-0.01,-0.00,31.99
33017176,1767,1,217036,260303,1.42,0.13,9.92,-0.03,-0.01,-0.00,31.99
33057177,1739,1,217140,260612,1.42,0.13,9.89,-0.03,-0.00,-0.01,31.99
33097176,1779,1,217270,260880,1.40,0.10,9.97,-0.04,-0.01,-0.01,31.99
33137177,1814,1,217222,259543,1.42,0.12,9.89,-0.04,-0.01,-0.00,31.99
33177176,1826,1,216506,257744,1.42,0.12,9.90,-0.04,-0.01,-0.01,31.99
33217177,1904,1,216242,257287,1.40,0.13,9.91,-0.03,-0.01,-0.01,31.99
33257177,1903,1,216248,257440,1.44,0.12,9.90,-0.03,-0.01,-0.00,31.99
33297177,1925,1,216276,257714,1.43,0.12,9.89,-0.03,-0.01,-0.00,31.99
33337176,1956,1,216347,257817,1.42,0.11,9.91,-0.03,-0.01,-0.01,31.99
33377177,1969,1,216437,258237,1.42,0.13,9.90,-0.03,-0.01,-0.00,31.99
33417177,1994,1,216503,258368,1.43,0.13,9.90,-0.03,-0.01,-0.00,31.99
33457175,1997,1,216497,258342,1.40,0.13,9.91,-0.03,-0.01,-0.00,31.99
33497177,2032,1,216457,258561,1.43,0.13,9.91,-0.03,-0.01,-0.00,31.99
33537177,1988,1,216575,259157,1.41,0.12,9.94,-0.03,-0.01,-0.00,31.99
33577177,2000,1,216787,259698,1.43,0.12,9.91,-0.03,-0.01,-0.00,31.99
33617177,1969,1,216826,260150,1.41,0.13,9.90,-0.03,-0.01,-0.00,31.99
33657177,1983,1,217011,260485,1.40,0.12,9.88,-0.03,-0.01,-0.00,31.99
33697177,1998,1,217095,260761,1.42,0.11,9.88,-0.03,-0.01,-0.01,31.99
33737177,1995,1,217236,261066,1.43,0.09,9.92,-0.03,-0.01,-0.00,31.99
33777861,1967,1,217497,261356,1.42,0.10,9.89,-0.03,-0.01,-0.01,31.99
33816177,2039,1,217577,261400,1.41,0.11,9.92,-0.03,-0.01,-0.01,31.99
33856177,2059,1,217322,259370,1.40,0.13,9.90,-0.03,-0.01,-0.01,31.99
33896177,2061,1,216660,258362,1.44,0.13,9.88,-0.03,-0.01,-0.00,31.99
33936181,2055,1,216541,258544,1.43,0.12,9.92,-0.03,-0.01,-0.00,31.99
33976177,2034,1,216669,258897,1.42,0.12,9.91,-0.03,-0.01,-0.00,31.99
34016177,2010,1,216776,259089,1.42,0.11,9.90,-0.03,-0.01,-0.00,31.99
34056176,2029,1,216823,259452,1.42,0.12,9.88,-0.03,-0.01,-0.00,31.99
34096178,2000,1,216995,259738,1.42,0.10,9.90,-0.03,-0.01,-0.01,31.99
34136197,2000,1,216997,259585,1.41,0.13,9.90,-0.03,-0.01,-0.00,31.99
34176174,2000,1,216969,259512,1.42,0.12,9.88,-0.03,-0.01,-0.01,31.99
34216177,1959,1,216965,259727,1.41,0.13,9.90,-0.03,-0.01,-0.00,31.99
34256175,1983,1,217011,260013,1.41,0.13,9.90,-0.03,-0.01,-0.00,31.99
34296177,1926,1,217162,260288,1.42,0.11,9.88,-0.03,-0.01,-0.01,31.99
34336205,1954,1,217246,260422,1.44,0.12,9.93,-0.03,-0.01,-0.01,31.99
34376177,1933,1,217321,260552,1.43,0.11,9.90,-0.03,-0.01,-0.00,31.99
34416175,1968,1,217322,260799,1.42,0.12,9.90,-0.03,-0.01,-0.00,31.99
34456177,1945,1,217433,260975,1.42,0.12,9.89,-0.03,-0.01,-0.00,31.99
34496178,1957,1,217550,260590,1.41,0.12,9.93,-0.03,-0.01,-0.00,31.99
34536177,2010,1,217088,258563,1.43,0.11,9.92,-0.03,-0.01,-0.00,31.99
34576177,2038,1,216659,257865,1.43,0.11,9.93,-0.03,-0.01,-0.00,31.99
34616177,2034,1,216603,258016,1.42,0.13,9.92,-0.03,-0.01,-0.00,31.99
34656177,2032,1,216677,258208,1.44,0.12,9.90,-0.03,-0.01,-0.00,31.99
34696177,2060,1,216714,258361,1.42,0.13,9.90,-0.03,-0.01,-0.01,31.99
34736177,2032,1,216817,258759,1.42,0.13,9.89,-0.03,-0.01,-0.00,31.99
34776177,2033,1,216969,258874,1.43,0.11,9.91,-0.03,-0.01,-0.00,31.99
34816864,1957,1,216962,258793,1.43,0.13,9.92,-0.03,-0.01,-0.00,31.95
34855177,2121,1,216937,258797,1.42,0.12,9.91,-0.03,-0.01,-0.00,31.95
34895177,2112,1,216962,259112,1.43,0.14,9.93,-0.03,-0.01,-0.00,31.95
34935177,2131,1,217152,259469,1.42,0.13,9.92,-0.03,-0.01,-0.00,31.95
34975177,2135,1,217257,259873,1.41,0.10,9.91,-0.03,-0.01,-0.00,31.95
35015177,2128,1,217444,260254,1.42,0.11,9.89,-0.03,-0.01,-0.01,31.95
35055177,2119,1,217510,260554,1.43,0.12,9.94,-0.03,-0.01,-0.00,31.95
35095177,2071,1,217616,260739,1.42,0.13,9.90,-0.03,-0.01,-0.01,31.95
35135177,2054,1,217622,260893,1.43,0.11,9.92,-0.03,-0.01,-0.00,31.95
35175177,2000,1,217614,260637,1.43,0.13,9.91,-0.03,-0.01,-0.00,31.95
35215177,2021,1,217095,258602,1.41,0.12,9.92,-0.03,-0.01,-0.00,31.95
35255177,1935,1,216571,257642,1.41,0.14,9.92,-0.03,-0.01,-0.00,31.95
35295178,1925,1,216407,257593,1.41,0.10,9.91,-0.03,-0.01,-0.00,31.95
35335177,1914,1,216426,257770,1.42,0.12,9.92,-0.03,-0.01,-0.00,31.95
35375177,1886,1,216447,257893,1.42,0.12,9.87,-0.03,-0.01,-0.00,31.95
35415177,1862,1,216511,258208,1.43,0.09,9.90,-0.03,-0.01,-0.00,31.95
35455174,1831,1,216665,258545,1.44,0.14,9.89,-0.03,-0.01,-0.00,31.95
35495177,1839,1,216689,258560,1.43,0.13,9.90,-0.03,-0.01,-0.00,31.95
35535175,1785,1,216560,258472,1.43,0.13,9.90,-0.03,-0.01,-0.00,31.95
35575197,1777,1,216598,258596,1.43,0.13,9.92,-0.03,-0.01,-0.00,31.95
35615177,1763,1,216593,258767,1.45,0.11,9.90,-0.03,-0.01,-0.01,31.95
35655177,1734,1,216631,258975,1.44,0.14,9.94,-0.03,-0.01,-0.00,31.95
35695177,1739,1,216783,259179,1.44,0.12,9.91,-0.03,-0.01,-0.00,31.95
35735177,1793,1,216776,259423,1.42,0.11,9.90,-0.03,-0.01,-0.01,31.95
35776192,1737,1,216754,259611,1.42,0.11,9.88,-0.03,-0.01,-0.01,31.95
35816863,1729,1,217150,259763,1.42,0.12,9.90,-0.03,-0.01,-0.00,31.91
35855177,1939,1,217215,259956,1.41,0.12,9.90,-0.03,-0.01,-0.00,31.91
35895177,1978,1,217196,259323,1.42,0.11,9.90,-0.03,-0.01,-0.00,31.91
35935177,1969,1,216704,257676,1.43,0.12,9.90,-0.03,-0.01,-0.00,31.91
35975195,2005,1,216307,257176,1.43,0.13,9.91,-0.03,-0.01,-0.00,31.91
36015177,2032,1,216290,257324,1.42,0.11,9.88,-0.03,-0.01,-0.00,31.91
36055177,2019,1,216346,257455,1.41,0.13,9.91,-0.03,-0.01,-0.01,31.91
36095178,2032,1,216362,257603,1.43,0.13,9.90,-0.03,-0.01,-0.01,31.91
36135177,2030,1,216450,257948,1.43,0.13,9.91,-0.03,-0.01,-0.00,31.91
36175177,1995,1,216469,258245,1.43,0.11,9.92,-0.03,-0.01,-0.00,31.91
36215177,1973,1,216513,258317,1.43,0.12,9.91,-0.03,-0.01,-0.00,31.91
36255177,1969,1,216593,258429,1.43,0.12,9.90,-0.03,-0.01,-0.00,31.91
36295177,1967,1,216705,258710,1.45,0.12,9.91,-0.03,-0.01,-0.01,31.91
36335177,1985,1,216776,259060,1.43,0.10,9.91,-0.03,-0.01,-0.00,31.91
36375177,1997,1,216846,259439,1.42,0.13,9.90,-0.03,-0.01,-0.00,31.91
36415177,2029,1,217060,259754,1.43,0.12,9.90,-0.03,-0.01,-0.00,31.91
36455177,2029,1,217114,259999,1.42,0.12,9.90,-0.03,-0.01,-0.00,31.91
36495178,2021,1,217117,260288,1.41,0.11,9.91,-0.03,-0.01,-0.00,31.91
36535177,2006,1,217254,260624,1.43,0.11,9.88,-0.03,-0.01,-0.00,31.91
36575177,2000,1,217445,260783,1.42,0.13,9.90,-0.03,-0.01,-0.00,31.91
36615177,2019,1,217319,259615,1.42,0.12,9.90,-0.03,-0.01,-0.00,31.91
36655174,1975,1,216625,258200,1.42,0.12,9.89,-0.03,-0.01,-0.01,31.91
36695177,1967,1,216385,258027,1.43,0.12,9.89,-0.03,-0.01,-0.00,31.91
36735177,1975,1,216494,258291,1.41,0.13,9.91,-0.03,-0.01,-0.00,31.91
36775177,2009,1,216524,258402,1.42,0.14,9.88,-0.03,-0.01,-0.00,31.91
36816177,1935,1,216316,258636,1.44,0.13,9.91,-0.03,-0.01,-0.00,31.91
36856863,1919,1,216700,259122,1.41,0.14,9.88,-0.03,-0.01,-0.01,31.95
36895177,1931,1,216800,259203,1.42,0.13,9.91,-0.03,-0.01,-0.00,31.95
36935177,1935,1,216742,259172,1.45,0.12,9.89,-0.03,-0.01,-0.00,31.95
36975177,1920,1,216762,259295,1.43,0.13,9.90,-0.03,-0.01,-0.00,31.95
37015177,1946,1,216892,259596,1.41,0.12,9.91,-0.03,-0.01,-0.00,31.95
37055177,1914,1,216945,259924,1.42,0.12,9.93,-0.03,-0.01,-0.00,31.95
37095177,1945,1,217088,260057,1.43,0.11,9.92,-0.03,-0.01,-0.00,31.95
37135177,1935,1,217162,260182,1.43,0.11,9.90,-0.03,-0.01,-0.00,31.95
37175177,1945,1,217196,260339,1.43,0.15,9.89,-0.03,-0.01,-0.01,31.95
37215177,1945,1,217296,260765,1.43,0.13,9.88,-0.03,-0.01,-0.00,31.95
37255177,1953,1,217546,261041,1.43,0.12,9.90,-0.03,-0.01,-0.00,31.95
37295175,1968,1,217502,260039,1.44,0.14,9.92,-0.03,-0.01,-0.01,31.95
37335177,2007,1,216940,258412,1.42,0.12,9.89,-0.03,-0.01,-0.00,31.95
37375177,2063,1,216612,258066,1.44,0.11,9.89,-0.03,-0.01,-0.00,31.95
37415181,2078,1,216649,258120,1.41,0.11,9.93,-0.03,-0.01,-0.00,31.95
37455177,2096,1,216563,258258,1.40,0.11,9.89,-0.03,-0.01,-0.00,31.95
37495176,2064,1,216635,258401,1.42,0.12,9.89,-0.03,-0.01,-0.00,31.95
37535177,2063,1,216720,258835,1.41,0.14,9.91,-0.03,-0.01,-0.00,31.95
37575177,2016,1,216740,258866,1.43,0.12,9.93,-0.03,-0.01,-0.00,31.95
37615191,1984,1,216569,258870,1.44,0.12,9.89,-0.03,-0.01,-0.00,31.95
37655177,1906,1,216664,259023,1.42,0.13,9.91,-0.03,-0.01,-0.00,31.95
37695177,1885,1,216671,259359,1.41,0.13,9.89,-0.03,-0.01,-0.01,31.95
37735177,1899,1,216854,259666,1.41,0.13,9.90,-0.03,-0.01,-0.00,31.95
37775175,1903,1,216885,259987,1.45,0.12,9.90,-0.03,-0.01,-0.00,31.95
37815177,1889,1,216876,260233,1.41,0.15,9.90,-0.03,-0.01,-0.00,31.95
37854177,1952,1,216983,260355,1.41,0.12,9.91,-0.03,-0.01,-0.00,31.95
37894864,1920,1,217065,260534,1.41,0.13,9.89,-0.03,-0.01,-0.00,31.91
37935177,1915,1,217054,260761,1.43,0.11,9.90,-0.03,-0.01,-0.00,31.91
37975177,1882,1,217181,260850,1.43,0.13,9.94,-0.03,-0.01,-0.00,31.91
38015177,1915,1,216938,259156,1.42,0.13,9.90,-0.03,-0.01,-0.00,31.91
38055177,1929,1,216330,257944,1.44,0.13,9.89,-0.03,-0.01,-0.00,31.91
38095177,1947,1,215996,257762,1.42,0.12,9.88,-0.03,-0.01,-0.00,31.91
38135177,1909,1,216020,257858,1.43,0.12,9.90,-0.03,-0.01,-0.00,31.91
38175177,1898,1,216043,257961,1.43,0.10,9.89,-0.03,-0.01,-0.00,31.91
38215177,1932,1,216197,258120,1.41,0.13,9.91,-0.03,-0.01,-0.00,31.91
38255177,1985,1,216273,258547,1.40,0.11,9.90,-0.03,-0.01,-0.00,31.91
38295177,2000,1,216471,258722,1.42,0.13,9.89,-0.03,-0.01,-0.00,31.91
38335177,2007,1,216525,258738,1.45,0.13,9.88,-0.03,-0.01,-0.00,31.91
38375177,2032,1,216485,258818,1.43,0.11,9.91,-0.03,-0.01,-0.00,31.91
38415177,2028,1,216497,259186,1.41,0.13,9.89,-0.03,-0.01,-0.00,31.91
38455177,2011,1,216825,259525,1.42,0.11,9.92,-0.03,-0.01,-0.00,31.91
38495177,2066,1,216909,259820,1.42,0.13,9.90,-0.03,-0.01,-0.00,31.91
38535177,2042,1,217000,260056,1.41,0.13,9.93,-0.03,-0.01,-0.00,31.91
38575177,2047,1,217070,260200,1.43,0.12,9.91,-0.03,-0.01,-0.00,31.91
38615177,2032,1,217087,260354,1.42,0.12,9.90,-0.03,-0.01,-0.00,31.91
38655175,1968,1,217185,260644,1.42,0.12,9.90,-0.03,-0.01,-0.00,31.91
38695177,2012,1,217297,260788,1.41,0.11,9.89,-0.03,-0.01,-0.01,31.91
38735177,1979,1,217171,260062,1.42,0.11,9.93,-0.03,-0.01,-0.00,31.91
38775177,1950,1,216524,258092,1.42,0.11,9.89,-0.03,-0.01,-0.00,31.91
38815177,1935,1,216133,257467,1.42,0.12,9.90,-0.03,-0.01,-0.00,31.91
38854177,1947,1,216081,257500,1.41,0.11,9.90,-0.03,-0.01,-0.00,31.91
38894864,1904,1,215970,257546,1.44,0.12,9.90,-0.03,-0.01,-0.00,31.89
38935177,1904,1,215982,257624,1.42,0.11,9.89,-0.03,-0.01,-0.00,31.89
38975177,1911,1,216056,258064,1.42,0.12,9.90,-0.03,-0.01,-0.00,31.89
39015177,1904,1,216200,258367,1.43,0.13,9.92,-0.03,-0.01,-0.00,31.89
39055208,1920,1,216113,258400,1.42,0.12,9.91,-0.03,-0.01,-0.00,31.89
39095177,1915,1,216178,258567,1.43,0.13,9.93,-0.03,-0.01,-0.00,31.89
39135177,1919,1,216222,258809,1.41,0.13,9.89,-0.03,-0.01,-0.00,31.89
39175177,1939,1,216427,259215,1.42,0.12,9.90,-0.03,-0.01,-0.00,31.89
39215175,1936,1,216529,259577,1.43,0.12,9.89,-0.03,-0.01,-0.00,31.89
39255179,1962,1,216706,259897,1.42,0.13,9.90,-0.03,-0.01,-0.00,31.89
39295174,1953,1,216851,260158,1.42,0.13,9.90,-0.03,-0.01,-0.00,31.89
39335177,1955,1,216921,260372,1.43,0.13,9.89,-0.03,-0.01,-0.00,31.89
39375177,1984,1,216995,260592,1.41,0.11,9.90,-0.03,-0.01,-0.00,31.89
39415177,1958,1,217089,260861,1.43,0.11,9.90,-0.03,-0.01,-0.00,31.89
39455174,1968,1,217159,261059,1.43,0.11,9.91,-0.03,-0.01,-0.00,31.89
39495177,1936,1,217034,259260,1.42,0.14,9.91,-0.03,-0.01,-0.00,31.89
39533177,2055,1,216349,257996,1.42,0.12,9.91,-0.03,-0.01,-0.01,31.89
39573177,2062,1,216194,257785,1.41,0.13,9.89,-0.03,-0.01,-0.00,31.89
39613177,2081,1,216274,258119,1.41,0.11,9.90,-0.03,-0.01,-0.01,31.89
39653177,2062,1,216350,258179,1.41,0.11,9.90,-0.03,-0.01,-0.00,31.89
39693177,2065,1,216360,258439,1.40,0.12,9.89,-0.03,-0.01,-0.00,31.89
39733177,2037,1,216555,258736,1.41,0.13,9.94,-0.03,-0.01,-0.00,31.89
39773177,2001,1,216617,258889,1.41,0.12,9.90,-0.03,-0.01,-0.01,31.89
39813177,2006,1,216678,258913,1.44,0.13,9.91,-0.03,-0.01,-0.00,31.89
39853177,2007,1,216706,259206,1.41,0.12,9.89,-0.03,-0.01,-0.00,31.89
39894177,1924,1,216931,259620,1.42,0.12,9.89,-0.03,-0.01,-0.00,31.89
39934864,1895,1,216999,260030,1.40,0.13,9.89,-0.03,-0.01,-0.00,31.77
39973177,1982,1,217128,260360,1.41,0.11,9.90,-0.03,-0.01,-0.00,31.77
40013177,1968,1,217151,260595,1.43,0.11,9.91,-0.03,-0.01,-0.00,31.77
40053177,1982,1,217183,260792,1.42,0.11,9.90,-0.03,-0.01,-0.00,31.77
40093177,1941,1,217263,260952,1.44,0.13,9.90,-0.03,-0.01,-0.00,31.77
40133177,1981,1,217309,261117,1.42,0.12,9.89,-0.03,-0.01,-0.00,31.77
40173177,1959,1,217218,260328,1.42,0.11,9.88,-0.03,-0.01,-0.00,31.77
40213177,1959,1,216598,258378,1.41,0.12,9.93,-0.03,-0.01,-0.00,31.77
40253178,1968,1,216208,257957,1.42,0.12,9.91,-0.03,-0.01,-0.00,31.77
40293177,1984,1,216203,258196,1.42,0.13,9.94,-0.03,-0.01,-0.01,31.77
40333177,1979,1,216264,258358,1.41,0.12,9.90,-0.03,-0.01,-0.00,31.77
40373177,1998,1,216303,258597,1.44,0.14,9.89,-0.03,-0.01,-0.00,31.77
40413177,1985,1,216491,258991,1.44,0.10,9.88,-0.03,-0.01,-0.00,31.77
40453177,2027,1,216640,259085,1.44,0.15,9.93,-0.03,-0.01,-0.00,31.77
40493177,2018,1,216592,258992,1.41,0.11,9.88,-0.03,-0.01,-0.00,31.77
40533177,2062,1,216571,259127,1.42,0.12,9.89,-0.03,-0.01,-0.00,31.77
40573177,2029,1,216643,259447,1.41,0.14,9.89,-0.03,-0.01,-0.01,31.77
40613177,2037,1,216759,259798,1.40,0.13,9.92,-0.03,-0.01,-0.00,31.77
40653177,1994,1,216862,260030,1.41,0.15,9.90,-0.03,-0.01,-0.01,31.77
40693228,2005,1,216987,260289,1.43,0.13,9.90,-0.03,-0.01,-0.00,31.77
40733175,2015,1,217095,260482,1.41,0.12,9.92,-0.03,-0.01,-0.01,31.77
40773177,1997,1,217188,260679,1.43,0.13,9.90,-0.03,-0.01,-0.00,31.77
40813175,2025,1,217265,260876,1.43,0.12,9.90,-0.03,-0.01,-0.00,31.77
40853177,2003,1,217265,259832,1.41,0.13,9.90,-0.03,-0.01,-0.00,31.77
40893210,2011,1,216596,258122,1.41,0.11,9.89,-0.03,-0.01,-0.00,31.77
40933177,2019,1,216317,257559,1.42,0.11,9.91,-0.03,-0.01,-0.00,31.77
40973864,1968,1,216284,257711,1.41,0.12,9.93,-0.03,-0.01,-0.00,31.75
41014177,1967,1,216362,257761,1.41,0.12,9.92,-0.03,-0.01,-0.00,31.75
41054177,1982,1,216398,257970,1.43,0.11,9.89,-0.03,-0.01,-0.01,31.75
41094194,2000,1,216533,258340,1.43,0.11,9.90,-0.03,-0.01,-0.01,31.75
41134177,1955,1,216557,258462,1.41,0.12,9.91,-0.03,-0.01,-0.00,31.75
41174177,1950,1,216549,258544,1.41,0.13,9.90,-0.03,-0.01,-0.01,31.75
41214177,1988,1,216563,258659,1.42,0.13,9.91,-0.03,-0.01,-0.00,31.75
41254177,1958,1,216577,258824,1.42,0.13,9.89,-0.03,-0.01,-0.00,31.75
41294177,1933,1,216616,259165,1.42,0.11,9.93,-0.03,-0.01,-0.00,31.75
41334177,1918,1,216719,259387,1.42,0.14,9.89,-0.03,-0.01,-0.00,31.75
41374177,1926,1,216819,259617,1.41,0.11,9.89,-0.03,-0.01,-0.00,31.75
41414177,1946,1,216949,259875,1.42,0.12,9.88,-0.03,-0.01,-0.00,31.75
41454177,1946,1,216968,260182,1.42,0.14,9.90,-0.03,-0.01,-0.00,31.75
41494177,1930,1,217087,260401,1.44,0.11,9.90,-0.03,-0.01,-0.00,31.75
41534177,1961,1,217058,260192,1.42,0.12,9.92,-0.03,-0.01,-0.00,31.75
41574177,1965,1,216628,258237,1.40,0.12,9.88,-0.03,-0.01,-0.00,31.75
41614174,1926,1,216033,257414,1.41,0.10,9.91,-0.03,-0.01,-0.00,31.75
41654176,1929,1,216013,257352,1.42,0.13,9.90,-0.03,-0.01,-0.00,31.75
41694177,1936,1,216043,257442,1.42,0.13,9.89,-0.03,-0.01,-0.01,31.75
41734177,1947,1,216087,257518,1.44,0.11,9.90,-0.03,-0.01,-0.00,31.75
41774177,1947,1,216100,257790,1.42,0.13,9.89,-0.03,-0.01,-0.01,31.75
41814176,1931,1,216276,258109,1.43,0.10,9.89,-0.03,-0.01,-0.01,31.75
41854177,1917,1,216300,258203,1.42,0.12,9.90,-0.03,-0.01,-0.00,31.75
41894176,1903,1,216277,258248,1.46,0.09,9.91,-0.03,-0.01,-0.00,31.75
41934177,1885,1,216311,258417,1.41,0.13,9.92,-0.03,-0.01,-0.00,31.75
41974863,1858,1,216517,258719,1.41,0.13,9.89,-0.03,-0.01,-0.00,31.81
42013177,1883,1,216601,259027,1.43,0.13,9.89,-0.03,-0.01,-0.00,31.81
42053177,1907,1,216759,259229,1.42,0.14,9.90,-0.03,-0.01,-0.00,31.81
42093178,1906,1,216820,259429,1.42,0.13,9.90,-0.03,-0.01,-0.00,31.81
42133177,1941,1,216977,259641,1.42,0.12,9.91,-0.03,-0.01,-0.00,31.81
42173177,1939,1,217070,259886,1.43,0.12,9.87,-0.03,-0.01,-0.01,31.81
42213177,2000,1,217160,260073,1.43,0.12,9.91,-0.03,-0.01,-0.00,31.81
42253177,1941,1,217236,259857,1.42,0.13,9.90,-0.03,-0.01,-0.00,31.81
42293177,1959,1,216763,257993,1.44,0.13,9.91,-0.03,-0.01,-0.00,31.81
42333181,1962,1,216289,257217,1.42,0.11,9.91,-0.03,-0.01,-0.00,31.81
42373177,1946,1,216191,257188,1.40,0.11,9.90,-0.03,-0.01,-0.00,31.81
42413174,1953,1,216218,257358,1.41,0.12,9.89,-0.03,-0.01,-0.00,31.81
42453177,1940,1,216283,257451,1.42,0.13,9.90,-0.03,-0.01,-0.00,31.81
42493175,1966,1,216331,257823,1.41,0.13,9.90,-0.03,-0.01,-0.00,31.81
42533214,1987,1,216459,258088,1.41,0.12,9.91,-0.03,-0.01,-0.00,31.81
42573177,1952,1,216438,258097,1.43,0.13,9.89,-0.03,-0.01,-0.01,31.81
42613177,1975,1,216508,258180,1.43,0.13,9.92,-0.03,-0.01,-0.01,31.81
42653177,1952,1,216496,258446,1.43,0.12,9.89,-0.03,-0.01,-0.01,31.81
42693177,1955,1,216636,258821,1.41,0.11,9.90,-0.03,-0.01,-0.00,31.81
42733200,1985,1,216746,259152,1.41,0.13,9.91,-0.03,-0.01,-0.01,31.81
42773177,1984,1,216841,259477,1.44,0.13,9.91,-0.03,-0.01,-0.01,31.81
42813176,1999,1,216936,259652,1.43,0.12,9.92,-0.03,-0.01,-0.00,31.81
42853177,2000,1,216963,259874,1.42,0.12,9.92,-0.03,-0.01,-0.00,31.81
42893177,1981,1,217035,260139,1.43,0.11,9.90,-0.03,-0.01,-0.00,31.81
42933177,1984,1,217131,260416,1.44,0.12,9.88,-0.03,-0.01,-0.00,31.81
42973177,1986,1,217202,260101,1.43,0.11,9.90,-0.03,-0.01,-0.00,31.81
43013864,1919,1,216665,258247,1.43,0.12,9.91,-0.03,-0.01,-0.01,31.91
43052177,2014,1,216216,257492,1.43,0.12,9.90,-0.03,-0.01,-0.00,31.91
43092177,2002,1,216145,257591,1.41,0.12,9.90,-0.03,-0.01,-0.00,31.91
43132177,2009,1,216180,257742,1.41,0.11,9.91,-0.03,-0.01,-0.00,31.91
43172177,1997,1,216203,257864,1.41,0.11,9.90,-0.03,-0.01,-0.00,31.91
43212177,1968,1,216281,258261,1.42,0.11,9.90,-0.03,-0.01,-0.00,31.91
43252177,1936,1,216410,258421,1.43,0.11,9.90,-0.03,-0.01,-0.00,31.91
43292178,1911,1,216343,258390,1.43,0.12,9.91,-0.03,-0.01,-0.00,31.91
43332177,1872,1,216261,258390,1.42,0.14,9.90,-0.03,-0.01,-0.00,31.91
43372177,1844,1,216289,258637,1.41,0.13,9.91,-0.03,-0.01,-0.00,31.91
43412177,1867,1,216340,258871,1.41,0.11,9.88,-0.03,-0.01,-0.00,31.91
43452177,1814,1,216328,259221,1.43,0.12,9.91,-0.03,-0.01,-0.00,31.91
43492177,1765,1,216416,259376,1.42,0.12,9.94,-0.03,-0.01,-0.00,31.91
43532177,1747,1,216339,259582,1.42,0.11,9.91,-0.03,-0.01,-0.00,31.91
43572177,1749,1,216456,259822,1.42,0.10,9.88,-0.03,-0.01,-0.00,31.91
43612177,1778,1,216574,260038,1.42,0.13,9.90,-0.03,-0.01,-0.01,31.91
43652177,1843,1,216650,259777,1.41,0.13,9.89,-0.03,-0.01,-0.01,31.91
43692177,1918,1,216154,258006,1.42,0.13,9.92,-0.03,-0.01,-0.01,31.91
43732177,1951,1,215741,257191,1.42,0.10,9.88,-0.03,-0.01,-0.00,31.91
43772177,1983,1,215571,257172,1.42,0.12,9.94,-0.03,-0.01,-0.00,31.91
43812177,2009,1,215692,257308,1.41,0.11,9.89,-0.03,-0.01,-0.00,31.91
43852177,2070,1,215560,257390,1.40,0.11,9.91,-0.03,-0.01,-0.00,31.91
43892177,2046,1,215642,257765,1.43,0.11,9.89,-0.03,-0.01,-0.01,31.91
43932177,2016,1,215668,257990,1.42,0.11,9.92,-0.03,-0.01,-0.00,31.91
43972180,2029,1,215722,258003,1.42,0.11,9.94,-0.03,-0.01,-0.01,31.91
44012177,2038,1,215587,258083,1.43,0.14,9.90,-0.03,-0.01,-0.00,31.91
44052863,2015,1,215453,258309,1.44,0.13,9.91,-0.03,-0.01,-0.00,31.71
44093177,2032,1,215585,258681,1.40,0.11,9.89,-0.03,-0.01,-0.00,31.71
44133177,2047,1,215625,258997,1.43,0.13,9.92,-0.03,-0.01,-0.00,31.71
44173204,1994,1,215431,259285,1.41,0.11,9.91,-0.03,-0.01,-0.00,31.71
44213177,1936,1,215738,259480,1.42,0.13,9.91,-0.03,-0.01,-0.00,31.71
44253177,1937,1,215659,259646,1.42,0.11,9.92,-0.03,-0.01,-0.00,31.71
44293177,1919,1,215176,259715,1.43,0.12,9.91,-0.03,-0.01,-0.00,31.71
44333177,1675,1,212131,259923,1.43,0.12,9.91,-0.03,-0.01,-0.00,31.71
44373177,1311,1,213220,260027,1.42,0.13,9.94,-0.03,-0.01,-0.01,31.71
44413177,1297,1,213119,258319,1.42,0.11,9.89,-0.03,-0.01,-0.00,31.71
44453177,1370,1,212083,257108,1.42,0.12,9.90,-0.03,-0.01,-0.00,31.71
44493175,1399,1,212124,256833,1.42,0.11,9.90,-0.03,-0.01,-0.00,31.71
44531177,1613,1,212297,256954,1.42,0.13,9.90,-0.03,-0.01,-0.00,31.71
44571177,1754,1,211901,257063,1.43,0.12,9.92,-0.03,-0.01,-0.00,31.71
44611176,1803,1,213010,257279,1.41,0.12,9.88,-0.03,-0.01,-0.01,31.71
44651177,2112,1,214305,257617,1.42,0.12,9.88,-0.03,-0.01,-0.00,31.71
44691177,2467,1,214393,257689,1.41,0.12,9.89,-0.03,-0.01,-0.00,31.71
44731177,2624,1,213637,257682,1.40,0.11,9.91,-0.03,-0.01,-0.01,31.71
44771177,2544,1,213619,257702,1.43,0.11,9.90,-0.03,-0.01,-0.00,31.71
44811177,2530,1,213725,258020,1.40,0.11,9.89,-0.03,-0.01,-0.01,31.71
44851177,2512,1,213761,258347,1.42,0.11,9.91,-0.03,-0.01,-0.00,31.71
44891177,2489,1,213753,258621,1.42,0.12,9.89,-0.03,-0.01,-0.01,31.71
44931177,2442,1,213765,258877,1.43,0.12,9.89,-0.03,-0.01,-0.00,31.71
44971177,2404,1,213382,258990,1.41,0.11,9.89,-0.03,-0.01,-0.00,31.71
45011177,2256,1,212911,259234,1.43,0.11,9.90,-0.03,-0.01,-0.01,31.71
45051177,2193,1,213655,259529,1.43,0.13,9.91,-0.03,-0.01,-0.00,31.71
45091864,2192,1,214255,259762,1.43,0.12,9.91,-0.03,-0.01,-0.00,31.63
45132177,2229,1,214406,259305,1.41,0.12,9.90,-0.03,-0.01,-0.01,31.63
45172176,2273,1,213956,257433,1.42,0.14,9.88,-0.03,-0.01,-0.00,31.63
45212177,2294,1,213685,256685,1.42,0.11,9.91,-0.03,-0.01,-0.00,31.63
45252177,2338,1,213671,256748,1.42,0.12,9.88,-0.03,-0.01,-0.01,31.63
45292177,2348,1,213678,256888,1.42,0.13,9.90,-0.03,-0.01,-0.00,31.63
45332177,2314,1,213926,257007,1.44,0.12,9.90,-0.03,-0.01,-0.00,31.63
45372177,2352,1,213983,257322,1.43,0.12,9.90,-0.03,-0.01,-0.00,31.63
45412176,2341,1,214249,257625,1.40,0.12,9.90,-0.03,-0.01,-0.00,31.63
45452174,2317,1,214227,257661,1.41,0.12,9.90,-0.03,-0.01,-0.00,31.63
45492176,2263,1,214358,257747,1.43,0.13,9.91,-0.03,-0.01,-0.00,31.63
45532177,2241,1,214413,257995,1.43,0.12,9.90,-0.03,-0.01,-0.00,31.63
45572177,2202,1,214562,258337,1.44,0.12,9.89,-0.03,-0.01,-0.00,31.63
45612177,2179,1,214778,258735,1.43,0.12,9.92,-0.03,-0.01,-0.00,31.63
45652176,2167,1,214993,258988,1.43,0.13,9.89,-0.03,-0.01,-0.00,31.63
45692177,2142,1,215220,259281,1.42,0.13,9.94,-0.03,-0.01,-0.01,31.63
45732177,2163,1,215467,259554,1.43,0.10,9.90,-0.03,-0.01,-0.00,31.63
45772174,2150,1,215470,259779,1.41,0.12,9.92,-0.03,-0.01,-0.00,31.63
45812210,2089,1,215605,260106,1.41,0.13,9.88,-0.03,-0.01,-0.01,31.63
45852177,2079,1,215747,260283,1.42,0.13,9.90,-0.03,-0.01,-0.00,31.63
45892176,2043,1,215610,258698,1.44,0.13,9.91,-0.03,-0.01,-0.00,31.63
45932177,2013,1,215014,257411,1.43,0.12,9.93,-0.03,-0.01,-0.01,31.63
45972177,1987,1,214777,257182,1.42,0.12,9.91,-0.03,-0.01,-0.00,31.63
46012205,1965,1,214835,257427,1.40,0.13,9.91,-0.03,-0.01,-0.00,31.63
46052177,1948,1,214947,257520,1.42,0.14,9.91,-0.03,-0.01,-0.00,31.63
46092864,1887,1,214938,257779,1.42,0.12,9.88,-0.03,-0.01,-0.00,31.83
46131177,1904,1,215192,258188,1.42,0.12,9.91,-0.03,-0.01,-0.00,31.83
46171177,1895,1,215259,258304,1.42,0.12,9.89,-0.03,-0.01,-0.01,31.83
46211177,1899,1,215211,258308,1.42,0.12,9.90,-0.03,-0.01,-0.00,31.83
46251177,1871,1,215242,258528,1.42,0.10,9.91,-0.03,-0.01,-0.00,31.83
46291177,1865,1,215308,258909,1.41,0.11,9.94,-0.03,-0.01,-0.01,31.83
46331177,1835,1,215378,259336,1.43,0.12,9.90,-0.03,-0.01,-0.01,31.83
46371177,1821,1,215441,259711,1.42,0.12,9.92,-0.03,-0.01,-0.00,31.83
46411177,1819,1,215440,260068,1.43,0.12,9.90,-0.03,-0.01,-0.00,31.83
46451177,1785,1,215586,260289,1.40,0.14,9.92,-0.03,-0.01,-0.01,31.83
46491177,1776,1,215652,260570,1.41,0.12,9.92,-0.03,-0.01,-0.00,31.83
46531177,1808,1,215780,260860,1.44,0.11,9.90,-0.03,-0.01,-0.00,31.83
46571174,1833,1,215855,260420,1.41,0.11,9.90,-0.03,-0.01,-0.00,31.83
46611177,1867,1,215336,258348,1.44,0.11,9.92,-0.03,-0.01,-0.00,31.83
46651177,1925,1,214917,257718,1.44,0.14,9.90,-0.03,-0.01,-0.00,31.83
46691176,1984,1,214990,257912,1.41,0.11,9.93,-0.03,-0.01,-0.01,31.83
46731177,2031,1,215023,258236,1.43,0.11,9.90,-0.03,-0.01,-0.01,31.83
46771177,2069,1,215192,258413,1.44,0.12,9.90,-0.03,-0.01,-0.01,31.83
46811177,2117,1,215441,258868,1.44,0.12,9.88,-0.03,-0.01,-0.01,31.83
46851177,2160,1,215640,258989,1.42,0.14,9.88,-0.03,-0.01,-0.00,31.83
46891177,2183,1,215584,258887,1.42,0.12,9.91,-0.03,-0.01,-0.00,31.83
46931177,2209,1,215609,258952,1.41,0.12,9.89,-0.03,-0.01,-0.01,31.83
46971177,2176,1,215675,259263,1.42,0.13,9.91,-0.03,-0.01,-0.01,31.83
47011177,2176,1,215806,259626,1.42,0.11,9.92,-0.03,-0.01,-0.00,31.83
47051177,2159,1,215786,259935,1.42,0.11,9.89,-0.03,-0.01,-0.00,31.83
47091177,2102,1,215948,260173,1.41,0.12,9.92,-0.03,-0.01,-0.00,31.83
47131864,2031,1,215747,260359,1.43,0.13,9.89,-0.03,-0.01,-0.00,31.89
47172177,1979,1,215896,260600,1.42,0.13,9.92,-0.03,-0.01,-0.00,31.89
47212177,2005,1,216007,260823,1.41,0.12,9.91,-0.03,-0.01,-0.00,31.89
47250177,2084,1,216070,259994,1.43,0.12,9.93,-0.03,-0.01,-0.00,31.89
47290177,2090,1,215398,258202,1.42,0.12,9.91,-0.03,-0.01,-0.00,31.89
47330177,2091,1,215099,257657,1.42,0.12,9.92,-0.03,-0.01,-0.00,31.89
47370177,2112,1,215076,257785,1.43,0.13,9.90,-0.03,-0.01,-0.00,31.89
47410177,2103,1,215191,258015,1.42,0.13,9.90,-0.03,-0.01,-0.01,31.89
47450182,2109,1,215373,258166,1.45,0.12,9.91,-0.03,-0.01,-0.00,31.89
47490177,2123,1,215439,258539,1.41,0.13,9.91,-0.03,-0.01,-0.00,31.89
47530177,2123,1,215541,258723,1.41,0.11,9.90,-0.03,-0.01,-0.00,31.89
47570177,2111,1,215568,258651,1.42,0.11,9.91,-0.03,-0.01,-0.00,31.89
47610177,2096,1,215589,258781,1.43,0.11,9.90,-0.03,-0.01,-0.00,31.89
47650196,2085,1,215663,259062,1.44,0.11,9.91,-0.03,-0.01,-0.00,31.89
47690177,2064,1,215884,259418,1.42,0.13,9.91,-0.03,-0.01,-0.00,31.89
47730177,2075,1,216091,259744,1.41,0.13,9.91,-0.03,-0.01,-0.00,31.89
47770177,2096,1,216162,260074,1.41,0.14,9.90,-0.03,-0.01,-0.00,31.89
47810177,2102,1,216271,260208,1.44,0.10,9.91,-0.03,-0.01,-0.00,31.89
47850177,2109,1,216281,260434,1.41,0.12,9.91,-0.03,-0.01,-0.00,31.89
47890177,2080,1,216301,260705,1.42,0.14,9.90,-0.03,-0.01,-0.01,31.89
47930177,2074,1,216403,260625,1.43,0.11,9.90,-0.03,-0.01,-0.00,31.89
47970177,2059,1,216013,258617,1.42,0.13,9.88,-0.03,-0.01,-0.00,31.89
48010177,2026,1,215405,257652,1.41,0.13,9.90,-0.03,-0.01,-0.00,31.89
48050177,2017,1,215367,257565,1.44,0.13,9.91,-0.03,-0.01,-0.00,31.89
48090177,2021,1,215435,257756,1.43,0.15,9.90,-0.03,-0.01,-0.01,31.89
48130177,2039,1,215491,257856,1.42,0.12,9.92,-0.03,-0.01,-0.00,31.89
48170864,2000,1,215554,258149,1.43,0.12,9.90,-0.03,-0.01,-0.00,31.89
48211177,2000,1,215708,258456,1.42,0.12,9.91,-0.03,-0.01,-0.00,31.89
48251177,1993,1,215757,258500,1.43,0.14,9.92,-0.03,-0.01,-0.01,31.89
48291177,1995,1,215833,258538,1.42,0.13,9.90,-0.03,-0.01,-0.00,31.89
48331177,2015,1,215794,258785,1.42,0.11,9.89,-0.03,-0.01,-0.01,31.89
48371177,2000,1,215909,259046,1.43,0.12,9.92,-0.03,-0.01,-0.00,31.89
48411177,1959,1,216085,259422,1.42,0.14,9.91,-0.03,-0.01,-0.00,31.89
48451177,2000,1,216151,259660,1.42,0.10,9.92,-0.03,-0.01,-0.00,31.89
48491175,1970,1,216283,259899,1.42,0.12,9.90,-0.03,-0.01,-0.00,31.89
48531177,2025,1,216348,260091,1.42,0.11,9.91,-0.03,-0.01,-0.00,31.89
48571177,2035,1,216480,260287,1.44,0.12,9.92,-0.03,-0.01,-0.00,31.89
48611177,2021,1,216611,260506,1.44,0.13,9.90,-0.03,-0.01,-0.00,31.89
48651174,2064,1,216629,259788,1.40,0.11,9.87,-0.03,-0.01,-0.01,31.89
48691177,1990,1,216082,258071,1.43,0.11,9.93,-0.03,-0.01,-0.00,31.89
48731177,2023,1,215698,257472,1.41,0.12,9.92,-0.03,-0.01,-0.01,31.89
48771177,2020,1,215633,257547,1.42,0.12,9.92,-0.03,-0.01,-0.00,31.89
48811177,2009,1,215688,257654,1.44,0.11,9.88,-0.03,-0.01,-0.00,31.89
48851177,2006,1,215755,257754,1.43,0.11,9.91,-0.03,-0.01,-0.00,31.89
48891177,2013,1,215872,258110,1.44,0.12,9.90,-0.03,-0.01,-0.00,31.89
48931177,2000,1,215987,258211,1.42,0.12,9.90,-0.03,-0.01,-0.00,31.89
48971177,1968,1,216004,258271,1.44,0.13,9.91,-0.03,-0.01,-0.00,31.89
49011177,1936,1,215995,258421,1.41,0.11,9.90,-0.03,-0.01,-0.00,31.89
49051177,1913,1,216067,258711,1.44,0.11,9.91,-0.03,-0.01,-0.00,31.89
49091177,1887,1,216138,259100,1.43,0.12,9.92,-0.03,-0.01,-0.00,31.89
49131177,1887,1,216218,259452,1.43,0.11,9.91,-0.03,-0.01,-0.01,31.89
49171863,1837,1,216420,259789,1.41,0.12,9.91,-0.03,-0.01,-0.00,31.85
49210178,1861,1,216454,260016,1.43,0.10,9.92,-0.03,-0.01,-0.00,31.85
49250177,1895,1,216638,260279,1.42,0.14,9.89,-0.03,-0.01,-0.00,31.85
49290177,2002,1,217012,260520,1.43,0.13,9.93,-0.03,-0.01,-0.00,31.85
49330177,2108,1,217670,260836,1.41,0.13,9.89,-0.03,-0.01,-0.00,31.85
49370177,2524,1,217731,260996,1.42,0.11,9.91,-0.03,-0.01,-0.00,31.85
49410177,2689,1,217566,259339,1.44,0.14,9.90,-0.03,-0.01,-0.01,31.85
49450177,2715,1,216870,258114,1.43,0.14,9.91,-0.03,-0.01,-0.00,31.85
49490177,2639,1,216726,257951,1.41,0.14,9.90,-0.03,-0.01,-0.00,31.85
49530177,2598,1,216745,258064,1.41,0.10,9.92,-0.04,-0.01,-0.00,31.85
49570177,2582,1,216799,258162,1.44,0.12,9.91,-0.03,-0.01,-0.01,31.85
49610177,2494,1,216671,258381,1.43,0.13,9.90,-0.03,-0.01,-0.00,31.85
49650177,2310,1,216743,258935,1.41,0.12,9.89,-0.03,-0.02,-0.00,31.85
49690177,2109,1,216878,259094,1.42,0.11,9.94,-0.03,-0.01,-0.00,31.85
49730177,1979,1,216915,259275,1.43,0.11,9.90,-0.03,-0.01,-0.00,31.85
49770177,1872,1,216742,259508,1.42,0.12,9.92,-0.03,-0.01,-0.00,31.85
49810177,1595,1,216740,259891,1.42,0.12,9.90,-0.03,-0.01,-0.01,31.85
49850177,1368,1,217302,260368,1.43,0.12,9.89,-0.03,-0.01,-0.00,31.85
49890177,1648,1,217478,260601,1.42,0.11,9.87,-0.03,-0.01,-0.00,31.85
49931177,1842,1,217539,260786,1.42,0.12,9.88,-0.03,-0.01,-0.01,31.85
49971177,1923,1,217585,260876,1.42,0.13,9.90,-0.03,-0.01,-0.00,31.85
50011175,1973,1,217668,261089,1.43,0.11,9.91,-0.03,-0.01,-0.00,31.85
50049177,2065,1,217734,261241,1.42,0.12,9.90,-0.03,-0.01,-0.01,31.85
50089177,2030,1,217671,260588,1.41,0.13,9.90,-0.03,-0.01,-0.00,31.85
50129177,2001,1,217207,258717,1.43,0.12,9.90,-0.03,-0.01,-0.01,31.85
50169177,2015,1,216818,258215,1.41,0.12,9.90,-0.03,-0.01,-0.00,31.85
50209863,2000,1,216781,258199,1.43,0.13,9.88,-0.03,-0.01,-0.00,31.81
50250177,2002,1,216856,258214,1.42,0.12,9.87,-0.03,-0.01,-0.01,31.81
50290177,1998,1,216930,258224,1.43,0.11,9.90,-0.03,-0.01,-0.00,31.81
50330174,2069,1,216869,258135,1.41,0.12,9.92,-0.03,-0.01,-0.00,31.81
50370177,2029,1,216731,257774,1.42,0.13,9.85,-0.03,-0.02,-0.00,31.81
50410177,1943,1,216568,257319,1.45,0.13,9.90,-0.03,-0.01,-0.00,31.81
50450177,1908,1,216478,257212,1.42,0.11,9.87,-0.03,-0.00,-0.01,31.81
50490177,1951,1,216635,257334,1.42,0.12,9.92,-0.03,-0.01,-0.01,31.81
50530177,2039,1,216656,257544,1.41,0.11,9.90,-0.03,-0.01,-0.01,31.81
50570177,2004,1,216691,257631,1.42,0.13,9.95,-0.04,-0.02,-0.00,31.81
50610177,1962,1,216497,257739,1.44,0.13,9.90,-0.04,-0.02,-0.00,31.81
50650174,1766,1,216810,258055,1.42,0.12,9.90,-0.03,-0.01,-0.01,31.81
50690177,1860,1,216886,258220,1.42,0.12,9.91,-0.03,-0.01,-0.00,31.81
50730200,1917,1,216995,258317,1.43,0.13,9.90,-0.03,-0.01,-0.00,31.81
50770177,2174,1,217093,258045,1.44,0.14,9.90,-0.03,-0.02,-0.00,31.81
50810177,2286,1,216768,256764,1.45,0.13,9.86,-0.03,-0.01,-0.00,31.81
50850177,2364,1,216267,255538,1.43,0.14,9.90,-0.03,-0.01,-0.00,31.81
50890177,2275,1,215861,255066,1.43,0.12,9.90,-0.03,-0.01,-0.00,31.81
50931177,2102,1,215864,254987,1.42,0.12,9.90,-0.03,-0.01,-0.00,31.81
50969177,2147,1,215860,255040,1.42,0.13,9.87,-0.03,-0.01,-0.00,31.81
51009177,2291,1,215973,255436,1.45,0.11,9.91,-0.03,-0.01,-0.00,31.81
51049177,2458,1,216022,255636,1.44,0.13,9.92,-0.03,-0.01,-0.00,31.81
51089177,2391,1,216168,255875,1.43,0.11,9.90,-0.03,-0.01,-0.01,31.81
51129192,2266,1,216296,256101,1.44,0.11,9.90,-0.03,-0.00,-0.01,31.81
51169177,2128,1,216388,256397,1.45,0.11,9.90,-0.03,-0.01,-0.00,31.81
51209863,2033,1,216555,256806,1.44,0.11,9.90,-0.03,-0.01,-0.00,31.27
51250177,1961,1,216711,257298,1.43,0.14,9.88,-0.03,-0.01,-0.00,31.27
51290177,1927,1,216867,257649,1.43,0.13,9.90,-0.03,-0.01,-0.00,31.27
51330177,1853,1,216993,258022,1.41,0.11,9.91,-0.03,-0.01,-0.01,31.27
51370177,1803,1,217098,258339,1.43,0.13,9.91,-0.03,-0.01,-0.00,31.27
51410177,1793,1,217198,258666,1.43,0.11,9.90,-0.03,-0.01,-0.01,31.27
51450177,1685,1,217308,259077,1.43,0.12,9.90,-0.03,-0.01,-0.00,31.27
51490177,1616,1,217316,259347,1.41,0.12,9.93,-0.03,-0.01,-0.00,31.27
51530177,1530,1,217340,258560,1.46,0.11,9.92,-0.03,-0.01,-0.00,31.27
51570177,1441,1,216716,256861,1.43,0.13,9.90,-0.03,-0.01,-0.01,31.27
51610177,1612,1,216429,256181,1.45,0.13,9.88,-0.03,-0.01,-0.00,31.27
51650177,1671,1,216341,256111,1.44,0.11,9.91,-0.03,-0.01,-0.00,31.27
51690177,1703,1,216376,256057,1.44,0.10,9.90,-0.03,-0.01,-0.00,31.27
51730177,1639,1,216369,256066,1.41,0.13,9.91,-0.03,-0.01,-0.00,31.27
51770177,1673,1,216429,256399,1.41,0.12,9.88,-0.03,-0.01,-0.00,31.27
51810177,1751,1,216475,256509,1.41,0.13,9.88,-0.03,-0.01,-0.00,31.27
51850177,1759,1,216507,256599,1.41,0.12,9.90,-0.03,-0.01,-0.00,31.27
51890177,1727,1,216469,256701,1.42,0.12,9.91,-0.03,-0.01,-0.00,31.27
51930177,1793,1,216522,256978,1.45,0.13,9.90,-0.03,-0.01,-0.00,31.27
51969177,1857,1,216588,257301,1.43,0.12,9.89,-0.03,-0.01,-0.00,31.27
52009177,1900,1,216678,257610,1.41,0.13,9.88,-0.03,-0.01,-0.00,31.27
52049177,1814,1,216817,257971,1.42,0.11,9.90,-0.03,-0.01,-0.01,31.27
52089177,1883,1,216884,258303,1.42,0.12,9.90,-0.03,-0.01,-0.00,31.27
52129176,1966,1,216977,258620,1.44,0.13,9.89,-0.03,-0.01,-0.00,31.27
52169177,1969,1,217082,258972,1.42,0.12,9.92,-0.03,-0.01,-0.00,31.27
52209864,1919,1,217203,259369,1.43,0.10,9.93,-0.03,-0.01,-0.01,31.19
52250177,1918,1,217291,259530,1.42,0.13,9.91,-0.03,-0.01,-0.00,31.19
52290177,1887,1,217078,258006,1.41,0.13,9.93,-0.03,-0.01,-0.00,31.19
52330177,1927,1,216423,256770,1.45,0.11,9.91,-0.03,-0.01,-0.01,31.19
52370177,1955,1,216321,256588,1.42,0.13,9.88,-0.03,-0.01,-0.00,31.19
52410177,2065,1,216365,256738,1.41,0.11,9.92,-0.03,-0.01,-0.01,31.19
52450177,2052,1,216357,256914,1.42,0.15,9.93,-0.03,-0.01,-0.00,31.19
52490177,2065,1,216415,257203,1.43,0.13,9.90,-0.03,-0.01,-0.00,31.19
52530177,2074,1,216486,257517,1.43,0.11,9.92,-0.03,-0.01,-0.01,31.19
52570183,2080,1,216545,257581,1.42,0.13,9.90,-0.03,-0.01,-0.00,31.19
52610177,2037,1,216579,257572,1.41,0.14,9.90,-0.03,-0.01,-0.00,31.19
52650177,2047,1,216625,257625,1.43,0.12,9.91,-0.03,-0.01,-0.01,31.19
52690177,2047,1,216676,257918,1.42,0.14,9.89,-0.03,-0.01,-0.00,31.19
52730177,2031,1,216776,258153,1.43,0.11,9.91,-0.03,-0.01,-0.01,31.19
52770203,1997,1,216890,258479,1.42,0.12,9.89,-0.03,-0.01,-0.00,31.19
52808177,2064,1,217037,258845,1.42,0.13,9.90,-0.03,-0.01,-0.01,31.19
52848177,2059,1,217073,259064,1.41,0.11,9.90,-0.03,-0.01,-0.00,31.19
52888177,2030,1,217077,259229,1.43,0.12,9.90,-0.03,-0.01,-0.00,31.19
52928176,2009,1,217290,259537,1.42,0.11,9.89,-0.03,-0.01,-0.01,31.19
52968177,1962,1,217425,259509,1.42,0.12,9.91,-0.03,-0.01,-0.00,31.19
53009177,1872,1,217099,257796,1.42,0.14,9.90,-0.03,-0.01,-0.00,31.19
53049177,1801,1,216567,256872,1.43,0.13,9.90,-0.03,-0.01,-0.01,31.19
53089177,1808,1,216392,256787,1.41,0.11,9.90,-0.03,-0.01,-0.00,31.19
53129177,1825,1,216485,257004,1.42,0.11,9.92,-0.03,-0.01,-0.00,31.19
53169177,1852,1,216516,257187,1.44,0.12,9.88,-0.03,-0.01,-0.00,31.19
53209864,1840,1,216597,257567,1.44,0.11,9.90,-0.03,-0.01,-0.00,31.25
53248177,1900,1,216730,257794,1.41,0.13,9.90,-0.03,-0.01,-0.00,31.25
53288177,1899,1,216739,257796,1.41,0.11,9.89,-0.03,-0.01,-0.00,31.25
53328177,1870,1,216715,257857,1.42,0.12,9.92,-0.03,-0.01,-0.00,31.25
53368177,1898,1,216725,258161,1.42,0.10,9.92,-0.03,-0.01,-0.00,31.25
53408177,1969,1,216913,258520,1.42,0.14,9.89,-0.03,-0.01,-0.00,31.25
53448177,2047,1,217058,259063,1.42,0.11,9.90,-0.03,-0.01,-0.00,31.25
53488176,2069,1,217107,259383,1.41,0.11,9.91,-0.03,-0.01,-0.00,31.25
53528177,2095,1,217215,259680,1.41,0.12,9.89,-0.03,-0.01,-0.00,31.25
53568176,2034,1,217268,259934,1.43,0.12,9.91,-0.03,-0.01,-0.01,31.25
53608177,1974,1,217413,260218,1.42,0.13,9.89,-0.03,-0.01,-0.00,31.25
53648176,1954,1,217397,260081,1.43,0.11,9.92,-0.03,-0.01,-0.01,31.25
53688177,1956,1,216990,258184,1.43,0.12,9.89,-0.03,-0.01,-0.00,31.25
53728177,1935,1,216529,257358,1.42,0.12,9.89,-0.03,-0.01,-0.00,31.25
53768177,1895,1,216476,257402,1.42,0.11,9.92,-0.03,-0.01,-0.00,31.25
53808177,1920,1,216532,257683,1.42,0.12,9.88,-0.03,-0.01,-0.00,31.25
53848177,1950,1,216535,257840,1.43,0.11,9.90,-0.03,-0.01,-0.00,31.25
53888177,1949,1,216649,258159,1.42,0.13,9.91,-0.03,-0.01,-0.00,31.25
53928177,1905,1,216764,258408,1.43,0.11,9.92,-0.03,-0.01,-0.00,31.25
53968177,1853,1,216725,258381,1.42,0.11,9.93,-0.03,-0.01,-0.00,31.25
54009177,1903,1,216781,258462,1.42,0.12,9.89,-0.03,-0.01,-0.00,31.25
54049177,1965,1,216882,258751,1.42,0.12,9.90,-0.03,-0.01,-0.01,31.25
54089177,1989,1,217015,259096,1.43,0.11,9.91,-0.03,-0.01,-0.00,31.25
54129177,1905,1,217135,259372,1.41,0.14,9.91,-0.03,-0.01,-0.00,31.25
54169177,1813,1,217182,259709,1.43,0.11,9.90,-0.03,-0.01,-0.00,31.25
54209903,1860,1,217315,259835,1.41,0.13,9.90,-0.03,-0.01,-0.00,31.43
54248174,1875,1,217390,259976,1.43,0.12,9.91,-0.03,-0.01,-0.00,31.43
54288177,1836,1,217446,260130,1.42,0.12,9.87,-0.03,-0.01,-0.00,31.43
54328177,1814,1,217528,260267,1.41,0.11,9.90,-0.03,-0.01,-0.00,31.43
54368177,1888,1,217522,259400,1.43,0.13,9.90,-0.03,-0.01,-0.00,31.43
54408177,2014,1,216813,257500,1.42,0.11,9.91,-0.03,-0.01,-0.00,31.43
54448177,2083,1,216486,257070,1.42,0.12,9.90,-0.03,-0.01,-0.00,31.43
54488177,2128,1,216386,257122,1.43,0.11,9.90,-0.03,-0.01,-0.00,31.43
54528177,2112,1,216485,257199,1.43,0.13,9.91,-0.03,-0.01,-0.01,31.43
54568177,2146,1,216519,257401,1.43,0.10,9.92,-0.03,-0.01,-0.00,31.43
54608177,2112,1,216641,257799,1.44,0.11,9.91,-0.03,-0.01,-0.00,31.43
54648177,2108,1,216701,258055,1.44,0.14,9.90,-0.03,-0.01,-0.00,31.43
54688177,2092,1,216714,258062,1.42,0.15,9.92,-0.03,-0.01,-0.00,31.43
54728177,2032,1,216636,258203,1.44,0.12,9.91,-0.03,-0.01,-0.00,31.43
54768177,2018,1,216728,258526,1.44,0.13,9.92,-0.03,-0.01,-0.00,31.43
54808177,1983,1,216891,258814,1.41,0.13,9.89,-0.03,-0.01,-0.01,31.43
54848177,1953,1,217038,259182,1.42,0.12,9.95,-0.03,-0.01,-0.01,31.43
54888177,1959,1,217110,259575,1.42,0.13,9.90,-0.03,-0.01,-0.01,31.43
54928177,1936,1,217154,259764,1.44,0.12,9.90,-0.03,-0.01,-0.00,31.43
54968177,1931,1,217236,260060,1.42,0.13,9.90,-0.03,-0.01,-0.00,31.43
55008177,1892,1,217259,260326,1.42,0.14,9.89,-0.03,-0.01,-0.00,31.43
55049177,1879,1,217370,260405,1.43,0.12,9.90,-0.03,-0.01,-0.00,31.43
55089177,1893,1,217181,258654,1.44,0.11,9.92,-0.03,-0.01,-0.00,31.43
55129177,1863,1,216520,257382,1.43,0.11,9.88,-0.03,-0.01,-0.00,31.43
55169177,1868,1,216347,257196,1.43,0.11,9.89,-0.03,-0.01,-0.00,31.43
55209864,1834,1,216383,257369,1.43,0.11,9.90,-0.03,-0.01,-0.00,31.43
55248177,1849,1,216456,257551,1.43,0.12,9.91,-0.03,-0.01,-0.00,31.43
55288177,1920,1,216502,258101,1.43,0.12,9.87,-0.04,-0.00,-0.01,31.43
55328177,1797,1,216719,258671,1.42,0.11,9.91,-0.04,-0.01,-0.00,31.43
55368177,1783,1,216887,258696,1.42,0.12,9.91,-0.03,-0.01,-0.01,31.43
55408177,1792,1,216835,258692,1.40,0.12,9.91,-0.03,-0.02,-0.01,31.43
55448177,1803,1,216865,258846,1.43,0.12,9.90,-0.03,-0.01,-0.00,31.43
55488177,1841,1,216975,259131,1.42,0.11,9.89,-0.03,-0.01,-0.00,31.43
55528177,1885,1,217136,259482,1.42,0.14,9.90,-0.03,-0.01,-0.00,31.43
55568177,1879,1,217242,259816,1.44,0.10,9.90,-0.03,-0.01,-0.00,31.43
55608174,1920,1,217350,260103,1.43,0.12,9.90,-0.03,-0.01,-0.00,31.43
55648176,1980,1,217388,260328,1.42,0.12,9.90,-0.03,-0.01,-0.00,31.43
55688177,2009,1,217468,260553,1.44,0.12,9.88,-0.03,-0.01,-0.01,31.43
55728177,2011,1,217581,260669,1.43,0.10,9.89,-0.03,-0.01,-0.00,31.43
55768174,2014,1,217385,259033,1.42,0.11,9.89,-0.03,-0.01,-0.00,31.43
55808177,1998,1,216596,257603,1.41,0.12,9.93,-0.03,-0.01,-0.00,31.43
55848258,2003,1,216436,257429,1.43,0.12,9.90,-0.03,-0.01,-0.00,31.43
55888177,2014,1,216461,257649,1.43,0.11,9.88,-0.03,-0.01,-0.00,31.43
55928177,2096,1,216540,257765,1.41,0.10,9.90,-0.03,-0.01,-0.00,31.43
55968177,2135,1,216595,258039,1.45,0.12,9.90,-0.03,-0.01,-0.00,31.43
56008174,2143,1,216704,258409,1.43,0.11,9.89,-0.03,-0.01,-0.01,31.43
56048214,2112,1,216708,258469,1.43,0.13,9.91,-0.03,-0.01,-0.00,31.43
56088177,2102,1,216650,258446,1.40,0.12,9.89,-0.03,-0.01,-0.00,31.43
56128177,2070,1,216717,258772,1.43,0.12,9.90,-0.03,-0.01,-0.01,31.43
56168177,2033,1,216823,259169,1.41,0.13,9.92,-0.03,-0.01,-0.00,31.43
56208176,1982,1,216950,259440,1.42,0.11,9.90,-0.03,-0.01,-0.00,31.43
56248864,1911,1,217076,259796,1.44,0.12,9.87,-0.03,-0.01,-0.00,31.29
56287177,1984,1,217221,259989,1.42,0.12,9.92,-0.03,-0.01,-0.01,31.29
56327177,1940,1,217276,260281,1.39,0.12,9.90,-0.03,-0.01,-0.00,31.29
56367177,1875,1,217328,260382,1.44,0.14,9.88,-0.03,-0.01,-0.00,31.29
56407177,1877,1,217332,259873,1.43,0.12,9.90,-0.03,-0.01,-0.00,31.29
56447177,1864,1,216638,257844,1.43,0.11,9.92,-0.03,-0.01,-0.00,31.29
56487177,1777,1,216279,257250,1.42,0.13,9.91,-0.03,-0.01,-0.00,31.29
56527177,1813,1,216231,257333,1.42,0.13,9.90,-0.03,-0.01,-0.00,31.29
56567177,1865,1,216340,257495,1.42,0.11,9.91,-0.03,-0.01,-0.01,31.29
56607177,1856,1,216345,257595,1.42,0.12,9.90,-0.03,-0.01,-0.00,31.29
56647177,1874,1,216531,257982,1.42,0.14,9.92,-0.03,-0.01,-0.00,31.29
56687177,1863,1,216657,258156,1.41,0.11,9.88,-0.03,-0.01,-0.01,31.29
56727177,1870,1,216633,258074,1.42,0.12,9.92,-0.03,-0.01,-0.00,31.29
56767177,1891,1,216577,258151,1.43,0.11,9.90,-0.03,-0.01,-0.00,31.29
56807177,1909,1,216668,258510,1.43,0.12,9.89,-0.03,-0.01,-0.00,31.29
56847177,1917,1,216755,258833,1.42,0.13,9.92,-0.03,-0.01,-0.00,31.29
56887177,1909,1,216876,259163,1.41,0.12,9.88,-0.03,-0.01,-0.00,31.29
56927177,1909,1,216963,259438,1.43,0.13,9.90,-0.03,-0.01,-0.00,31.29
56967174,1897,1,217081,259673,1.42,0.13,9.92,-0.03,-0.01,-0.01,31.29
57007177,1899,1,217213,259931,1.42,0.12,9.91,-0.03,-0.01,-0.00,31.29
57047177,1955,1,217296,260198,1.42,0.11,9.91,-0.03,-0.01,-0.00,31.29
57087177,2026,1,217339,259552,1.41,0.13,9.92,-0.03,-0.01,-0.00,31.29
57127177,2043,1,216723,257614,1.42,0.11,9.91,-0.03,-0.01,-0.00,31.29
57167177,2032,1,216253,257002,1.43,0.11,9.90,-0.03,-0.01,-0.01,31.29
57207177,2102,1,216136,256983,1.42,0.12,9.91,-0.03,-0.01,-0.00,31.29
57247177,2096,1,216249,257186,1.43,0.11,9.92,-0.03,-0.01,-0.01,31.29
57287864,2017,1,216057,257292,1.42,0.12,9.91,-0.03,-0.01,-0.00,31.35
57328177,2017,1,216195,257729,1.44,0.12,9.90,-0.03,-0.01,-0.00,31.35
57368177,2021,1,216342,257899,1.42,0.12,9.89,-0.03,-0.01,-0.00,31.35
57408177,2002,1,216483,257933,1.41,0.11,9.90,-0.03,-0.01,-0.00,31.35
57448177,1998,1,216459,258091,1.43,0.13,9.90,-0.03,-0.01,-0.00,31.35
57488193,1965,1,216445,258330,1.45,0.14,9.90,-0.03,-0.01,-0.00,31.35
57528174,1953,1,216564,258592,1.45,0.11,9.90,-0.03,-0.01,-0.00,31.35
57568177,1911,1,216756,258933,1.44,0.11,9.89,-0.03,-0.01,-0.00,31.35
57608177,1870,1,216836,259211,1.41,0.11,9.92,-0.03,-0.01,-0.00,31.35
57646177,1902,1,216885,259388,1.43,0.11,9.93,-0.03,-0.01,-0.00,31.35
57686235,1870,1,216888,259572,1.43,0.11,9.92,-0.03,-0.01,-0.00,31.35
57726177,1869,1,217014,259784,1.43,0.12,9.91,-0.03,-0.01,-0.01,31.35
57766177,1872,1,217125,259847,1.42,0.14,9.89,-0.03,-0.01,-0.00,31.35
57806177,1910,1,216785,257978,1.45,0.12,9.90,-0.03,-0.01,-0.00,31.35
57846177,1965,1,216245,256791,1.45,0.13,9.91,-0.03,-0.01,-0.00,31.35
57886177,2007,1,216177,256741,1.45,0.11,9.91,-0.03,-0.01,-0.00,31.35
57926177,2010,1,216191,256945,1.44,0.11,9.90,-0.03,-0.01,-0.00,31.35
57966177,1970,1,216218,257049,1.42,0.13,9.90,-0.03,-0.01,-0.00,31.35
58006174,1952,1,216362,257445,1.44,0.12,9.89,-0.03,-0.01,-0.00,31.35
58046177,1968,1,216488,257917,1.44,0.11,9.92,-0.03,-0.01,-0.00,31.35
58086177,1963,1,216465,257926,1.43,0.13,9.87,-0.03,-0.01,-0.00,31.35
58126177,1951,1,216565,258045,1.43,0.11,9.89,-0.03,-0.01,-0.00,31.35
58166177,1933,1,216521,258223,1.44,0.13,9.89,-0.03,-0.01,-0.00,31.35
58206177,1989,1,216783,258737,1.43,0.11,9.91,-0.03,-0.01,-0.00,31.35
58246177,2066,1,216886,259136,1.43,0.11,9.91,-0.04,-0.01,-0.00,31.35
58286177,2091,1,216887,259440,1.42,0.14,9.90,-0.03,-0.01,-0.01,31.35
58326864,2073,1,217028,259827,1.44,0.13,9.90,-0.03,-0.01,-0.00,31.43
58367177,2107,1,217131,260095,1.44,0.11,9.92,-0.03,-0.01,-0.00,31.43
58407177,2102,1,217264,260497,1.42,0.11,9.90,-0.03,-0.01,-0.00,31.43
58447177,2087,1,217417,260845,1.43,0.11,9.89,-0.03,-0.01,-0.00,31.43
58487177,2068,1,217464,259588,1.43,0.13,9.89,-0.03,-0.01,-0.00,31.43
58527182,2023,1,216642,257864,1.45,0.11,9.90,-0.03,-0.01,-0.01,31.43
58567177,1968,1,216377,257582,1.43,0.14,9.93,-0.03,-0.01,-0.00,31.43
58607177,1952,1,216310,257833,1.42,0.11,9.88,-0.03,-0.01,-0.01,31.43
58647177,1901,1,216469,258084,1.42,0.13,9.89,-0.03,-0.01,-0.00,31.43
58687177,1862,1,216463,258275,1.44,0.12,9.91,-0.03,-0.01,-0.01,31.43
58727177,1858,1,216645,258710,1.43,0.13,9.89,-0.03,-0.01,-0.01,31.43
58767177,1852,1,216678,258707,1.43,0.13,9.90,-0.03,-0.01,-0.01,31.43
58807177,1847,1,216745,258641,1.42,0.12,9.92,-0.03,-0.01,-0.00,31.43
58847177,1842,1,216736,258723,1.43,0.09,9.91,-0.03,-0.01,-0.00,31.43
58887177,1794,1,216841,259210,1.42,0.12,9.91,-0.03,-0.01,-0.01,31.43
58927176,1765,1,216996,259482,1.42,0.13,9.91,-0.03,-0.01,-0.00,31.43
58967177,1759,1,217099,259783,1.41,0.12,9.91,-0.03,-0.01,-0.00,31.43
59007177,1783,1,217102,259889,1.44,0.13,9.93,-0.03,-0.01,-0.00,31.43
59047177,1854,1,217189,260070,1.45,0.12,9.92,-0.03,-0.01,-0.00,31.43
59087177,1839,1,217287,260250,1.42,0.13,9.91,-0.03,-0.01,-0.01,31.43
59127177,1889,1,217363,259919,1.42,0.12,9.90,-0.03,-0.01,-0.00,31.43
59167177,1924,1,216831,257781,1.42,0.11,9.90,-0.03,-0.01,-0.01,31.43
59207177,1936,1,216432,257192,1.44,0.12,9.90,-0.03,-0.01,-0.00,31.43
59247177,1934,1,216295,257167,1.42,0.12,9.89,-0.03,-0.01,-0.00,31.43
59287177,1973,1,216387,257436,1.41,0.11,9.88,-0.03,-0.01,-0.00,31.43
59327883,1974,1,216402,257632,1.43,0.12,9.91,-0.03,-0.01,-0.00,31.53
59366177,1981,1,216447,258178,1.43,0.12,9.92,-0.03,-0.01,-0.01,31.53
59406177,1971,1,216642,258382,1.42,0.11,9.92,-0.03,-0.01,-0.01,31.53
59446177,1962,1,216666,258250,1.42,0.12,9.89,-0.03,-0.01,-0.01,31.53
59486177,1968,1,216668,258343,1.43,0.11,9.93,-0.03,-0.01,-0.01,31.53
59526206,1957,1,216732,258641,1.44,0.13,9.91,-0.03,-0.01,-0.00,31.53
59566177,1939,1,216785,259058,1.42,0.12,9.90,-0.03,-0.01,-0.00,31.53
59606177,1933,1,216851,259400,1.43,0.11,9.92,-0.03,-0.01,-0.00,31.53
59646177,1925,1,217004,259743,1.44,0.13,9.90,-0.03,-0.01,-0.00,31.53
59686177,1913,1,217104,259878,1.42,0.12,9.89,-0.03,-0.01,-0.00,31.53
59726177,1904,1,217176,260225,1.43,0.13,9.90,-0.03,-0.01,-0.00,31.53
59766177,1886,1,217217,260419,1.42,0.13,9.90,-0.03,-0.01,-0.00,31.53
59806177,1887,1,217247,259905,1.43,0.11,9.90,-0.03,-0.01,-0.00,31.53
59846177,1878,1,216595,257821,1.41,0.12,9.90,-0.03,-0.01,-0.00,31.53
59886177,1858,1,216269,257180,1.42,0.12,9.90,-0.03,-0.01,-0.00,31.53
59926177,1857,1,216130,257205,1.42,0.10,9.90,-0.03,-0.01,-0.00,31.53
59966177,1851,1,216186,257378,1.43,0.12,9.90,-0.03,-0.01,-0.00,31.53
60006174,1856,1,216275,257418,1.44,0.12,9.90,-0.03,-0.01,-0.00,31.53
60046177,1887,1,216262,257781,1.43,0.11,9.90,-0.03,-0.01,-0.00,31.53
60086175,1908,1,216378,257997,1.41,0.10,9.90,-0.03,-0.01,-0.00,31.53
60126177,1937,1,216484,257971,1.43,0.13,9.91,-0.03,-0.01,-0.00,31.53
60166177,1945,1,216506,258051,1.43,0.14,9.93,-0.03,-0.01,-0.00,31.53
60206177,1941,1,216550,258237,1.42,0.12,9.90,-0.03,-0.01,-0.00,31.53
60246177,1939,1,216673,258577,1.42,0.13,9.90,-0.03,-0.01,-0.00,31.53
60286177,1920,1,216753,258935,1.43,0.12,9.90,-0.03,-0.01,-0.00,31.53
60326177,1913,1,216833,259088,1.43,0.11,9.89,-0.03,-0.01,-0.00,31.53
60366882,1874,1,217007,259353,1.42,0.13,9.89,-0.03,-0.01,-0.01,31.33
60405177,1918,1,217071,259593,1.45,0.11,9.89,-0.03,-0.01,-0.00,31.33
60445177,1907,1,217154,259851,1.42,0.12,9.89,-0.03,-0.01,-0.01,31.33
60485177,1856,1,217252,260010,1.41,0.11,9.92,-0.03,-0.01,-0.00,31.33
60525182,1881,1,217080,258388,1.43,0.11,9.93,-0.03,-0.01,-0.00,31.33
60565177,1877,1,216254,256951,1.45,0.11,9.89,-0.03,-0.01,-0.00,31.33
60605177,1888,1,216088,256717,1.42,0.10,9.90,-0.03,-0.01,-0.00,31.33
60645174,1904,1,216171,256971,1.42,0.12,9.87,-0.03,-0.01,-0.00,31.33
60685177,1936,1,216216,257139,1.42,0.11,9.89,-0.03,-0.01,-0.01,31.33
60725177,1938,1,216272,257450,1.43,0.11,9.91,-0.03,-0.01,-0.00,31.33
60765200,1968,1,216295,257834,1.44,0.13,9.92,-0.03,-0.01,-0.01,31.33
60805177,1963,1,216344,257981,1.43,0.14,9.90,-0.03,-0.01,-0.00,31.33
60845177,1993,1,216327,258043,1.44,0.11,9.90,-0.03,-0.01,-0.00,31.33
60885177,1969,1,216451,258260,1.43,0.09,9.91,-0.03,-0.01,-0.00,31.33
60925177,1996,1,216621,258736,1.43,0.12,9.92,-0.03,-0.01,-0.00,31.33
60965196,2002,1,216766,259182,1.44,0.12,9.88,-0.03,-0.01,-0.00,31.33
61005177,1984,1,216862,259578,1.43,0.13,9.90,-0.03,-0.01,-0.01,31.33
61045177,1979,1,217073,259876,1.42,0.12,9.90,-0.03,-0.01,-0.00,31.33
61085176,1995,1,217091,260158,1.42,0.11,9.89,-0.03,-0.01,-0.01,31.33
61125177,1991,1,217187,260583,1.43,0.10,9.90,-0.03,-0.01,-0.00,31.33
61165201,1966,1,217409,260787,1.43,0.13,9.90,-0.03,-0.01,-0.00,31.33
61205177,1955,1,217331,259875,1.43,0.11,9.91,-0.03,-0.01,-0.00,31.33
61245177,1964,1,216708,257956,1.42,0.10,9.91,-0.03,-0.01,-0.00,31.33
61285174,1959,1,216384,257549,1.41,0.13,9.91,-0.03,-0.01,-0.00,31.33
61325177,1939,1,216313,257958,1.44,0.13,9.90,-0.03,-0.01,-0.00,31.33
61365177,1907,1,216438,258259,1.45,0.12,9.93,-0.03,-0.01,-0.00,31.33
61405863,1881,1,216629,258551,1.44,0.12,9.91,-0.03,-0.01,-0.00,31.55
61446177,1890,1,216945,259105,1.43,0.12,9.90,-0.03,-0.01,-0.00,31.55
61486177,1947,1,217012,259192,1.43,0.13,9.92,-0.03,-0.01,-0.00,31.55
61526177,1999,1,217057,259036,1.43,0.12,9.91,-0.03,-0.01,-0.00,31.55
61566177,1998,1,216989,259253,1.40,0.11,9.91,-0.03,-0.01,-0.00,31.55
61606174,1986,1,217095,259713,1.41,0.12,9.89,-0.03,-0.01,-0.00,31.55
61646176,1983,1,217253,260064,1.42,0.11,9.90,-0.03,-0.01,-0.00,31.55
