timestamp_us,ecg,leads,ir,red,accX,accY,accZ,gyroX,gyroY,gyroZ,temp
1919485,1227,1,208713,237043,0.00,0.00,0.00,0.00,0.00,0.00,0.00
1949956,722,1,208670,237130,1.18,0.15,9.66,-0.03,-0.01,-0.00,34.81
1990174,555,1,208689,237213,1.21,0.16,9.92,-0.03,-0.02,-0.00,34.81
2030167,501,1,208770,237442,1.23,0.15,9.94,-0.03,-0.02,-0.00,34.81
2070169,592,1,208859,237849,1.23,0.16,9.91,-0.03,-0.01,-0.00,34.81
2110167,752,1,208979,237890,1.21,0.13,9.93,-0.03,-0.01,-0.00,34.81
2150169,953,1,208961,237873,1.24,0.15,9.92,-0.03,-0.01,-0.00,34.81
2190167,1146,1,208953,238104,1.24,0.14,9.92,-0.03,-0.01,-0.00,34.81
2230169,1328,1,209162,238517,1.22,0.17,9.93,-0.03,-0.01,-0.00,34.81
2270169,1492,1,209231,238798,1.23,0.16,9.94,-0.03,-0.01,-0.00,34.81
2310169,1633,1,209311,239101,1.24,0.14,9.95,-0.03,-0.01,-0.00,34.81
2350170,1773,1,209426,239266,1.20,0.16,9.92,-0.03,-0.01,-0.00,34.81
2390169,1904,1,209503,239423,1.23,0.17,9.91,-0.03,-0.02,-0.00,34.81
2430167,2034,1,209524,239558,1.25,0.15,9.91,-0.03,-0.02,-0.00,34.81
2470169,2121,1,209583,239542,1.23,0.16,9.91,-0.03,-0.01,-0.00,34.81
2510170,2225,1,209338,238039,1.21,0.17,9.91,-0.03,-0.01,-0.00,34.81
2550169,2267,1,208537,235973,1.22,0.18,9.89,-0.04,-0.01,-0.00,34.81
2590170,2320,1,208146,235801,1.24,0.15,9.95,-0.03,-0.01,-0.00,34.81
2630169,2352,1,208331,236219,1.26,0.14,9.94,-0.03,-0.01,-0.00,34.81
2670167,2357,1,208519,236699,1.22,0.16,9.94,-0.03,-0.01,-0.00,34.81
2710170,2355,1,208756,237195,1.22,0.16,9.92,-0.03,-0.01,-0.00,34.81
2750170,2368,1,209025,237865,1.25,0.15,9.92,-0.03,-0.01,-0.00,34.81
2790169,2373,1,209283,238142,1.23,0.16,9.92,-0.03,-0.01,-0.00,34.81
2830170,2339,1,209264,238134,1.22,0.15,9.90,-0.03,-0.01,-0.00,34.81
2870221,2352,1,209248,238294,1.23,0.16,9.95,-0.03,-0.01,-0.00,34.81
2910170,2346,1,209321,238672,1.24,0.14,9.95,-0.03,-0.01,-0.00,34.81
2950169,2287,1,209476,238966,1.24,0.16,9.93,-0.03,-0.01,-0.00,34.81
2990856,2229,1,209611,239248,1.23,0.15,9.92,-0.03,-0.01,-0.00,34.37
3029170,2286,1,209728,239445,1.24,0.17,9.96,-0.03,-0.01,-0.00,34.37
3069195,2251,1,209728,239539,1.23,0.15,9.93,-0.03,-0.01,-0.00,34.37
3109169,2251,1,209782,239724,1.23,0.15,9.90,-0.03,-0.01,-0.00,34.37
3149167,2233,1,209924,240145,1.24,0.16,9.94,-0.03,-0.01,-0.00,34.37
3189170,2195,1,210036,240082,1.24,0.17,9.94,-0.03,-0.01,-0.00,34.37
3229170,2192,1,209678,238390,1.22,0.17,9.94,-0.04,-0.01,-0.00,34.37
3269169,2158,1,209114,237711,1.24,0.17,9.94,-0.03,-0.01,-0.00,34.37
3309170,2127,1,209503,238757,1.24,0.15,9.93,-0.03,-0.01,-0.00,34.37
3349170,2096,1,210075,240127,1.22,0.16,9.94,-0.03,-0.02,-0.00,34.37
3389167,2087,1,210796,241656,1.24,0.17,9.97,-0.04,-0.02,-0.00,34.37
3429169,2079,1,211525,243150,1.25,0.18,9.92,-0.04,-0.02,-0.00,34.37
3469167,2095,1,212168,244599,1.24,0.15,9.95,-0.03,-0.03,-0.00,34.37
3509170,2196,1,212893,245760,1.24,0.15,9.93,-0.04,-0.03,-0.00,34.37
3549167,2259,1,213334,246484,1.27,0.15,9.90,-0.03,-0.02,-0.00,34.37
3589170,2257,1,213469,246967,1.25,0.17,9.91,-0.03,-0.01,-0.00,34.37
3629167,2231,1,213743,247515,1.29,0.16,9.95,-0.03,-0.00,-0.01,34.37
3669169,2295,1,213953,247928,1.26,0.15,9.90,-0.04,-0.01,-0.01,34.37
3709170,2243,1,214055,248352,1.27,0.16,9.92,-0.03,-0.01,-0.00,34.37
3749170,2192,1,214064,248548,1.27,0.14,9.91,-0.03,-0.01,-0.00,34.37
3789170,2114,1,214074,248591,1.26,0.15,9.92,-0.03,-0.01,-0.00,34.37
3829169,2109,1,214132,248484,1.25,0.15,9.91,-0.03,-0.01,-0.00,34.37
3869167,2000,1,214135,247972,1.27,0.15,9.94,-0.03,-0.01,-0.00,34.37
3909170,1985,1,213492,245951,1.26,0.15,9.91,-0.03,-0.01,-0.00,34.37
3949170,1923,1,212731,244545,1.24,0.15,9.90,-0.03,-0.01,-0.00,34.37
3989169,1882,1,212501,244108,1.25,0.14,9.94,-0.03,-0.01,-0.00,34.37
4029854,1811,1,212423,244097,1.24,0.14,9.91,-0.03,-0.01,-0.00,34.37
4068169,1884,1,212346,244198,1.24,0.14,9.93,-0.03,-0.01,-0.00,34.37
4108170,1858,1,212571,244780,1.25,0.15,9.93,-0.04,-0.01,-0.00,34.37
4148169,1836,1,212775,245047,1.26,0.16,9.92,-0.03,-0.01,-0.00,34.37
4188170,1795,1,212811,245177,1.26,0.17,9.93,-0.03,-0.01,-0.00,34.37
4228170,1841,1,212824,245376,1.26,0.16,9.92,-0.03,-0.01,-0.00,34.37
4268170,1794,1,212957,245719,1.27,0.16,9.94,-0.03,-0.01,-0.01,34.37
4308169,1805,1,213126,246018,1.25,0.14,9.93,-0.03,-0.01,-0.00,34.37
4348170,1794,1,213156,246425,1.28,0.17,9.92,-0.03,-0.01,-0.00,34.37
4388170,1799,1,213253,246606,1.26,0.14,9.94,-0.03,-0.01,-0.00,34.37
4428170,1775,1,213274,246644,1.26,0.17,9.96,-0.03,-0.01,-0.00,34.37
4468170,1817,1,213248,246719,1.26,0.16,9.95,-0.03,-0.01,-0.01,34.37
4508222,1849,1,213155,246737,1.25,0.15,9.92,-0.03,-0.01,-0.00,34.37
4548169,1861,1,213066,245618,1.27,0.15,9.91,-0.03,-0.01,-0.00,34.37
4588170,1874,1,212339,243701,1.27,0.16,9.91,-0.03,0.00,-0.00,34.37
4628161,1831,1,211566,242309,1.23,0.15,9.98,-0.02,0.01,-0.00,34.37
4668158,1782,1,211476,242498,1.22,0.16,9.95,-0.03,-0.03,-0.00,34.37
4708221,1807,1,211785,243021,1.27,0.19,9.98,-0.05,-0.03,-0.00,34.37
4748167,1850,1,211901,243440,1.24,0.18,9.94,-0.03,-0.01,-0.00,34.37
4788169,1827,1,212087,243982,1.24,0.14,9.93,-0.03,-0.01,-0.00,34.37
4828170,1845,1,212189,244556,1.23,0.16,9.93,-0.03,-0.01,-0.00,34.37
4868170,1822,1,212301,244797,1.26,0.17,9.96,-0.03,-0.01,-0.00,34.37
4908170,1818,1,212455,245111,1.23,0.16,9.91,-0.04,-0.02,-0.00,34.37
4948170,1844,1,212639,245492,1.26,0.16,9.92,-0.04,-0.01,-0.00,34.37
4988170,1920,1,212825,245778,1.25,0.14,9.94,-0.03,-0.01,-0.00,34.37
5028169,1931,1,212918,245990,1.25,0.17,9.92,-0.03,-0.01,-0.00,34.37
5068856,1919,1,212876,245874,1.28,0.18,9.93,-0.03,-0.00,-0.00,32.25
5109169,1917,1,212513,245797,1.24,0.17,9.94,-0.03,-0.00,-0.00,32.25
5149170,1757,1,212411,245753,1.24,0.17,9.95,-0.03,-0.00,-0.00,32.25
5189170,1685,1,212501,245959,1.23,0.17,9.92,-0.03,-0.01,-0.00,32.25
5229170,1661,1,212423,244990,1.26,0.17,9.93,-0.03,0.01,-0.00,32.25
5269161,1690,1,211664,242672,1.23,0.18,9.95,-0.03,-0.02,-0.00,32.25
5309167,1729,1,211145,241579,1.24,0.17,9.94,-0.03,-0.01,-0.00,32.25
5349169,1759,1,210914,241467,1.24,0.17,9.93,-0.03,-0.01,-0.00,32.25
5389170,1841,1,211133,241839,1.24,0.16,9.92,-0.04,-0.02,-0.00,32.25
5429170,1950,1,211309,242368,1.24,0.17,9.91,-0.04,-0.02,-0.00,32.25
5469170,1969,1,211655,243199,1.25,0.16,9.91,-0.04,-0.02,-0.00,32.25
5509169,2029,1,211819,243381,1.23,0.17,9.90,-0.03,-0.01,-0.00,32.25
5549167,2166,1,211675,243179,1.25,0.17,9.92,-0.03,-0.01,-0.00,32.25
5589169,2153,1,211439,243069,1.23,0.18,9.92,-0.03,-0.00,-0.01,32.25
5629170,2114,1,211523,243260,1.24,0.17,9.91,-0.03,-0.01,-0.00,32.25
5669170,2127,1,211488,243381,1.24,0.19,9.95,-0.04,-0.02,-0.00,32.25
5709167,2125,1,211636,243884,1.24,0.18,9.92,-0.03,-0.01,-0.00,32.25
5749170,2150,1,211879,244537,1.24,0.16,9.93,-0.03,-0.01,-0.00,32.25
5789170,2169,1,212024,245129,1.23,0.18,9.94,-0.04,-0.02,-0.00,32.25
5829169,2175,1,212473,245658,1.23,0.17,9.90,-0.04,-0.02,-0.00,32.25
5869167,2277,1,212769,246034,1.24,0.16,9.94,-0.04,-0.02,-0.00,32.25
5909170,2370,1,212839,246107,1.26,0.16,9.95,-0.04,-0.02,-0.00,32.25
5949170,2410,1,212609,244793,1.25,0.14,9.90,-0.04,-0.01,-0.00,32.25
5989169,2454,1,212100,243754,1.25,0.16,9.91,-0.03,-0.01,-0.00,32.25
6029170,2436,1,211903,243592,1.26,0.14,9.91,-0.03,-0.01,-0.00,32.25
6069856,2407,1,212033,243762,1.25,0.16,9.92,-0.03,-0.01,-0.00,31.77
6108170,2311,1,212050,243998,1.27,0.16,9.93,-0.03,-0.01,-0.00,31.77
6148174,2271,1,212216,244458,1.26,0.17,9.90,-0.03,-0.01,-0.00,31.77
6188167,2193,1,212427,244808,1.24,0.15,9.91,-0.03,-0.01,-0.00,31.77
6228169,2172,1,212509,245000,1.25,0.17,9.95,-0.04,-0.01,-0.00,31.77
6268170,2128,1,212574,245082,1.25,0.16,9.93,-0.03,-0.01,-0.00,31.77
6308169,2047,1,212646,245378,1.26,0.15,9.91,-0.03,-0.01,-0.00,31.77
6348206,2014,1,212780,245767,1.25,0.17,9.92,-0.03,-0.01,-0.00,31.77
6388169,1958,1,212919,246120,1.24,0.15,9.92,-0.03,-0.01,-0.00,31.77
6428170,1915,1,213052,246536,1.25,0.17,9.93,-0.03,-0.01,-0.00,31.77
6468169,1898,1,213151,246797,1.28,0.16,9.91,-0.03,-0.01,-0.00,31.77
6508170,1863,1,213247,247080,1.25,0.16,9.93,-0.03,-0.01,-0.00,31.77
6548198,1830,1,213326,247232,1.25,0.16,9.92,-0.03,-0.01,-0.00,31.77
6588170,1797,1,213426,247118,1.25,0.16,9.94,-0.03,-0.01,-0.00,31.77
6628169,1789,1,213136,245843,1.25,0.15,9.91,-0.03,-0.01,-0.01,31.77
6668170,1797,1,212618,244928,1.26,0.17,9.94,-0.03,-0.01,-0.00,31.77
6708170,1791,1,212453,244635,1.26,0.16,9.93,-0.03,-0.01,-0.00,31.77
6748169,1777,1,212418,244790,1.25,0.17,9.91,-0.03,-0.01,-0.00,31.77
6788170,1754,1,212469,244897,1.25,0.16,9.93,-0.03,-0.01,-0.00,31.77
6828170,1762,1,212452,245194,1.25,0.16,9.90,-0.03,-0.01,-0.00,31.77
6868169,1787,1,212521,245289,1.25,0.16,9.92,-0.03,-0.01,-0.00,31.77
6908170,1776,1,212461,245149,1.26,0.17,9.93,-0.03,-0.01,-0.00,31.77
6948170,1803,1,212373,245034,1.27,0.18,9.93,-0.03,-0.01,-0.00,31.77
6988167,1815,1,212258,244963,1.26,0.17,9.92,-0.03,-0.01,-0.00,31.77
7028170,1836,1,212097,244981,1.25,0.17,9.90,-0.03,0.00,-0.00,31.77
7068157,1695,1,211911,245129,1.25,0.17,9.93,-0.03,0.00,-0.01,31.77
7108847,1519,1,211857,245156,1.22,0.19,9.94,-0.03,0.00,-0.00,32.17
7147157,1535,1,211822,245358,1.22,0.17,9.95,-0.03,-0.00,-0.00,32.17
7187169,1501,1,211899,245238,1.25,0.18,9.96,-0.04,-0.03,-0.00,32.17
7227170,1632,1,211843,245333,1.22,0.17,9.91,-0.03,-0.01,-0.00,32.17
7267169,1675,1,211837,244895,1.25,0.17,9.92,-0.03,-0.01,-0.00,32.17
7307170,1754,1,211482,243525,1.25,0.17,9.91,-0.04,-0.01,-0.00,32.17
7347169,1853,1,211271,243078,1.23,0.16,9.93,-0.04,-0.02,-0.00,32.17
7387170,1893,1,211337,243254,1.26,0.16,9.91,-0.04,-0.02,-0.00,32.17
7427169,2105,1,211526,243471,1.24,0.15,9.90,-0.04,-0.02,-0.00,32.17
7467167,2237,1,211629,243810,1.27,0.17,9.93,-0.03,-0.01,-0.00,32.17
7507169,2375,1,211754,244198,1.26,0.17,9.92,-0.03,-0.01,-0.00,32.17
7547170,2378,1,211856,244352,1.26,0.18,9.92,-0.03,-0.01,-0.00,32.17
7587169,2378,1,211910,244425,1.28,0.17,9.92,-0.03,-0.01,-0.00,32.17
7627169,2395,1,211925,244593,1.25,0.18,9.93,-0.03,-0.01,-0.00,32.17
7667170,2381,1,212066,244958,1.24,0.17,9.94,-0.03,-0.01,-0.00,32.17
7707169,2318,1,212209,245386,1.27,0.15,9.92,-0.03,-0.01,-0.00,32.17
7747169,2317,1,212367,245698,1.25,0.16,9.95,-0.03,-0.01,-0.00,32.17
7787173,2276,1,212415,245940,1.26,0.15,9.92,-0.03,-0.01,-0.00,32.17
7827169,2206,1,212429,246061,1.23,0.16,9.93,-0.03,-0.01,-0.00,32.17
7867170,2165,1,212486,246164,1.24,0.18,9.92,-0.03,-0.01,-0.00,32.17
7907169,2117,1,212536,246084,1.22,0.18,9.93,-0.03,-0.01,-0.00,32.17
7947170,2086,1,212329,244787,1.24,0.16,9.94,-0.03,-0.01,-0.00,32.17
7987201,2075,1,211664,243094,1.24,0.16,9.94,-0.03,-0.01,-0.00,32.17
8027170,2002,1,211244,242471,1.24,0.14,9.95,-0.03,-0.01,-0.00,32.17
8067169,2005,1,211205,242479,1.24,0.16,9.92,-0.03,-0.01,-0.01,32.17
8107170,1993,1,211261,242701,1.25,0.18,9.92,-0.03,-0.01,-0.00,32.17
8147856,1931,1,211332,243112,1.24,0.16,9.90,-0.03,-0.01,-0.00,32.47
8188167,1870,1,211518,243669,1.25,0.18,9.90,-0.03,-0.01,-0.00,32.47
8228169,1879,1,211638,243931,1.23,0.17,9.95,-0.03,-0.01,-0.00,32.47
8268170,1887,1,211693,244043,1.25,0.16,9.95,-0.03,-0.01,-0.00,32.47
8308170,1903,1,211829,244572,1.25,0.16,9.90,-0.04,-0.01,-0.00,32.47
8348167,1885,1,212028,245316,1.25,0.18,9.90,-0.04,-0.01,-0.00,32.47
8388170,1924,1,212264,245857,1.24,0.14,9.95,-0.04,-0.01,-0.00,32.47
8428170,1882,1,212404,246198,1.25,0.16,9.92,-0.03,-0.02,-0.00,32.47
8468169,1918,1,212539,246554,1.26,0.15,9.93,-0.04,-0.01,-0.00,32.47
8508170,1904,1,212615,246736,1.25,0.16,9.91,-0.03,-0.01,-0.00,32.47
8548170,1945,1,212708,246987,1.27,0.17,9.94,-0.03,-0.01,-0.00,32.47
8588170,1923,1,212766,247052,1.24,0.16,9.93,-0.03,-0.01,-0.00,32.47
8628169,1963,1,212589,245991,1.24,0.16,9.93,-0.03,-0.01,-0.00,32.47
8668170,1920,1,211992,244634,1.25,0.13,9.91,-0.03,-0.01,-0.00,32.47
8708170,1883,1,211694,244084,1.27,0.14,9.92,-0.03,-0.01,-0.00,32.47
8748170,1899,1,211604,244026,1.24,0.14,9.92,-0.03,-0.01,-0.00,32.47
8788169,1901,1,211633,244050,1.26,0.16,9.92,-0.03,-0.01,-0.00,32.47
8828170,1879,1,211719,244387,1.26,0.16,9.92,-0.03,-0.01,-0.00,32.47
8866170,1968,1,211897,244770,1.25,0.16,9.95,-0.03,-0.01,-0.00,32.47
8906170,1975,1,212025,244990,1.27,0.15,9.95,-0.03,-0.01,-0.00,32.47
8946169,1968,1,212023,245094,1.26,0.16,9.91,-0.03,-0.01,-0.00,32.47
8986170,1955,1,212186,245354,1.25,0.15,9.93,-0.03,-0.01,-0.00,32.47
9026173,1981,1,212306,245667,1.27,0.17,9.93,-0.03,-0.01,-0.00,32.47
9066170,1962,1,212409,246041,1.25,0.18,9.94,-0.03,-0.01,-0.00,32.47
9106169,1981,1,212630,246401,1.26,0.15,9.92,-0.03,-0.01,-0.00,32.47
9146170,2002,1,212763,246918,1.26,0.16,9.93,-0.03,-0.01,-0.00,32.47
9186856,1911,1,212934,247225,1.26,0.15,9.92,-0.03,-0.01,-0.00,32.63
9227170,1962,1,213035,247474,1.26,0.14,9.91,-0.03,-0.01,-0.00,32.63
9267169,1936,1,213048,247293,1.25,0.17,9.93,-0.03,-0.01,-0.00,32.63
9307170,1926,1,212790,246032,1.28,0.14,9.91,-0.03,-0.01,-0.00,32.63
9347169,1915,1,212229,244963,1.24,0.16,9.94,-0.03,-0.01,-0.00,32.63
9387170,1910,1,212017,244693,1.27,0.15,9.94,-0.03,-0.01,-0.00,32.63
9427170,1926,1,212011,244708,1.25,0.16,9.91,-0.03,-0.01,-0.00,32.63
9467170,1951,1,212051,244836,1.26,0.17,9.91,-0.03,-0.01,-0.00,32.63
9507169,1965,1,212095,245189,1.26,0.16,9.94,-0.03,-0.01,-0.00,32.63
9547170,1964,1,212198,245413,1.25,0.14,9.93,-0.03,-0.01,-0.00,32.63
9587169,1967,1,212227,245409,1.25,0.16,9.92,-0.03,-0.01,-0.00,32.63
9627174,1963,1,212188,245345,1.27,0.16,9.92,-0.03,-0.01,-0.00,32.63
9667170,1936,1,212177,245492,1.25,0.15,9.93,-0.03,-0.01,-0.01,32.63
9707170,1951,1,212235,245695,1.27,0.15,9.93,-0.03,-0.01,-0.00,32.63
9747170,1939,1,212301,245848,1.26,0.16,9.92,-0.03,-0.01,-0.00,32.63
9787170,1963,1,212331,246062,1.24,0.16,9.91,-0.03,-0.01,-0.00,32.63
9827189,1952,1,212443,246384,1.26,0.16,9.93,-0.03,-0.01,-0.00,32.63
9867170,1923,1,212532,246575,1.26,0.17,9.92,-0.03,-0.01,-0.00,32.63
9907169,1957,1,212588,246735,1.25,0.17,9.93,-0.03,-0.01,-0.00,32.63
9947170,1932,1,212514,246028,1.26,0.13,9.92,-0.03,-0.01,-0.00,32.63
9987169,1923,1,212043,244516,1.26,0.16,9.94,-0.03,-0.01,-0.00,32.63
10027167,1930,1,211582,243778,1.26,0.15,9.95,-0.03,-0.01,-0.00,32.63
10067170,1931,1,211506,243702,1.25,0.15,9.95,-0.03,-0.01,-0.00,32.63
10107170,1922,1,211538,243745,1.26,0.15,9.91,-0.03,-0.01,-0.00,32.63
10147169,1931,1,211558,243944,1.25,0.16,9.91,-0.03,-0.01,-0.00,32.63
10187856,1953,1,211663,244357,1.26,0.16,9.91,-0.03,-0.01,-0.00,32.61
10226170,1984,1,211773,244466,1.28,0.16,9.93,-0.03,-0.01,-0.00,32.61
10266169,1983,1,211814,244472,1.27,0.15,9.92,-0.03,-0.01,-0.00,32.61
10306169,1995,1,211835,244660,1.26,0.16,9.91,-0.03,-0.01,-0.00,32.61
10346170,1967,1,211950,244950,1.26,0.15,9.95,-0.03,-0.01,-0.00,32.61
10386170,1994,1,212088,245247,1.24,0.15,9.90,-0.03,-0.01,-0.00,32.61
10426170,1978,1,212202,245599,1.27,0.16,9.95,-0.03,-0.01,-0.00,32.61
10466170,1954,1,212344,245977,1.25,0.15,9.90,-0.03,-0.01,-0.00,32.61
10506170,1973,1,212498,246243,1.27,0.16,9.94,-0.03,-0.01,-0.00,32.61
10546169,1991,1,212489,246390,1.27,0.16,9.93,-0.03,-0.01,-0.00,32.61
10586170,1985,1,212549,246497,1.28,0.16,9.92,-0.03,-0.01,-0.00,32.61
10626170,1967,1,212413,245414,1.26,0.18,9.92,-0.03,-0.01,-0.00,32.61
10666170,1939,1,211842,243897,1.25,0.16,9.92,-0.03,-0.01,-0.00,32.61
10706170,1970,1,211421,243234,1.24,0.16,9.96,-0.03,-0.01,-0.00,32.61
10746170,1960,1,211359,243122,1.25,0.15,9.92,-0.03,-0.01,-0.00,32.61
10786169,1953,1,211371,243221,1.24,0.13,9.90,-0.03,-0.01,-0.00,32.61
10826170,1968,1,211418,243431,1.25,0.15,9.91,-0.03,-0.01,-0.00,32.61
10866169,1968,1,211549,243861,1.29,0.15,9.92,-0.03,-0.01,-0.00,32.61
10906169,1983,1,211635,244009,1.26,0.16,9.90,-0.03,-0.01,-0.00,32.61
10946169,1977,1,211633,244065,1.25,0.14,9.93,-0.03,-0.01,-0.00,32.61
10986170,2000,1,211665,244266,1.26,0.18,9.91,-0.03,-0.01,-0.00,32.61
11026171,2009,1,211759,244544,1.26,0.15,9.91,-0.03,-0.01,-0.00,32.61
11066170,1973,1,211863,244787,1.28,0.14,9.92,-0.03,-0.01,-0.00,32.61
11106170,1978,1,211973,245160,1.27,0.16,9.91,-0.03,-0.01,-0.00,32.61
11146170,1975,1,212106,245425,1.25,0.15,9.91,-0.03,-0.01,-0.00,32.61
11186170,1973,1,212184,245711,1.25,0.16,9.90,-0.03,-0.01,-0.00,32.61
11226856,1934,1,212183,246032,1.24,0.15,9.94,-0.03,-0.01,-0.00,32.47
11267203,1917,1,212307,246188,1.27,0.17,9.92,-0.03,-0.01,-0.00,32.47
11307170,1941,1,212336,246012,1.25,0.15,9.95,-0.03,-0.01,-0.00,32.47
11347169,1931,1,211988,244525,1.26,0.17,9.91,-0.03,-0.01,-0.00,32.47
11387170,1904,1,211453,243304,1.25,0.16,9.93,-0.03,-0.01,-0.00,32.47
11427169,1894,1,211223,243007,1.26,0.16,9.93,-0.03,-0.01,-0.00,32.47
11465170,2013,1,211286,243127,1.27,0.15,9.92,-0.03,-0.01,-0.00,32.47
11505170,2000,1,211357,243274,1.25,0.17,9.94,-0.03,-0.01,-0.00,32.47
11545170,2009,1,211469,243782,1.27,0.17,9.90,-0.03,-0.01,-0.00,32.47
11585170,2022,1,211678,244159,1.25,0.14,9.91,-0.03,-0.01,-0.00,32.47
11625170,2015,1,211801,244345,1.25,0.16,9.92,-0.03,-0.01,-0.00,32.47
11665170,2015,1,211846,244445,1.28,0.15,9.90,-0.03,-0.01,-0.00,32.47
11705170,2028,1,211969,244659,1.27,0.15,9.94,-0.03,-0.01,-0.00,32.47
11745169,2032,1,212076,244961,1.27,0.17,9.89,-0.03,-0.01,-0.00,32.47
11785170,2029,1,212193,245289,1.27,0.16,9.91,-0.03,-0.01,-0.00,32.47
11825170,2004,1,212325,245666,1.25,0.15,9.92,-0.03,-0.01,-0.00,32.47
11865170,2014,1,212454,245980,1.24,0.16,9.91,-0.03,-0.01,-0.00,32.47
11905170,2013,1,212547,246267,1.25,0.17,9.95,-0.03,-0.01,-0.00,32.47
11945170,1986,1,212651,246581,1.27,0.15,9.91,-0.03,-0.01,-0.00,32.47
11985170,1984,1,212729,246780,1.25,0.17,9.91,-0.03,-0.01,-0.00,32.47
12025173,1991,1,212682,246029,1.27,0.15,9.93,-0.03,-0.01,-0.00,32.47
12065170,1993,1,212163,244674,1.26,0.15,9.92,-0.03,-0.01,-0.00,32.47
12106170,1957,1,211830,243945,1.26,0.15,9.94,-0.03,-0.01,-0.00,32.47
12146170,1950,1,211790,243958,1.26,0.15,9.94,-0.03,-0.01,-0.00,32.47
12186169,1958,1,211800,244129,1.26,0.14,9.89,-0.03,-0.01,-0.00,32.47
12226169,1936,1,211866,244468,1.26,0.14,9.94,-0.03,-0.01,-0.00,32.47
12266856,1909,1,211996,245044,1.25,0.14,9.91,-0.03,-0.01,-0.00,32.35
12305170,2005,1,212103,245289,1.26,0.14,9.91,-0.03,-0.01,-0.00,32.35
12345170,1991,1,212123,245321,1.25,0.16,9.91,-0.03,-0.01,-0.00,32.35
12385170,2000,1,212180,245429,1.25,0.16,9.91,-0.03,-0.01,-0.00,32.35
12425170,2000,1,212288,245716,1.26,0.16,9.96,-0.03,-0.01,-0.00,32.35
12465169,2018,1,212444,246134,1.27,0.15,9.92,-0.03,-0.01,-0.00,32.35
12505170,1990,1,212490,246461,1.26,0.17,9.92,-0.03,-0.01,-0.00,32.35
12545170,2017,1,212580,246778,1.25,0.17,9.91,-0.03,-0.01,-0.00,32.35
12585170,1987,1,212714,246997,1.26,0.14,9.92,-0.03,-0.01,-0.00,32.35
12625169,1983,1,212818,247197,1.26,0.16,9.92,-0.03,-0.01,-0.00,32.35
12665169,1978,1,212836,247278,1.26,0.16,9.94,-0.03,-0.01,-0.00,32.35
12705170,1993,1,212736,246356,1.26,0.16,9.89,-0.03,-0.01,-0.00,32.35
12745170,1975,1,212204,244845,1.26,0.17,9.93,-0.03,-0.01,-0.00,32.35
12785169,2007,1,211857,244237,1.25,0.16,9.90,-0.03,-0.01,-0.00,32.35
12825170,1978,1,211740,244274,1.25,0.14,9.92,-0.03,-0.01,-0.00,32.35
12865169,2002,1,211813,244431,1.26,0.16,9.93,-0.03,-0.01,-0.00,32.35
12905214,2009,1,211904,244676,1.26,0.16,9.91,-0.03,-0.01,-0.00,32.35
12945170,1991,1,212110,245003,1.26,0.15,9.89,-0.03,-0.01,-0.00,32.35
12985170,1984,1,212114,245065,1.26,0.17,9.93,-0.03,-0.01,-0.00,32.35
13025175,1966,1,212099,244965,1.25,0.15,9.90,-0.03,-0.01,-0.00,32.35
13065170,1984,1,212133,245159,1.26,0.16,9.92,-0.03,-0.01,-0.00,32.35
13105209,1975,1,212271,245432,1.25,0.16,9.94,-0.03,-0.01,-0.00,32.35
13145169,1968,1,212310,245720,1.28,0.15,9.90,-0.03,-0.01,-0.00,32.35
13185170,1936,1,212391,245988,1.27,0.17,9.91,-0.03,-0.01,-0.00,32.35
13225170,1955,1,212516,246280,1.24,0.17,9.94,-0.03,-0.01,-0.00,32.35
13265169,1961,1,212621,246517,1.27,0.16,9.93,-0.03,-0.01,-0.00,32.35
13305857,1939,1,212597,246696,1.25,0.15,9.91,-0.03,-0.01,-0.00,32.35
13346169,1936,1,212649,246275,1.27,0.13,9.91,-0.03,-0.01,-0.00,32.35
13386170,1953,1,212247,244700,1.25,0.13,9.94,-0.03,-0.01,-0.00,32.35
13426169,1946,1,211651,243447,1.26,0.16,9.92,-0.03,-0.01,-0.00,32.35
13466170,1944,1,211336,243290,1.25,0.16,9.93,-0.03,-0.01,-0.00,32.35
13506170,1942,1,211347,243480,1.26,0.14,9.92,-0.03,-0.01,-0.00,32.35
13546170,1943,1,211344,243639,1.27,0.15,9.92,-0.03,-0.01,-0.00,32.35
13586169,1954,1,211529,244043,1.25,0.15,9.92,-0.03,-0.01,-0.00,32.35
13626170,1990,1,211608,244249,1.25,0.17,9.92,-0.03,-0.01,-0.00,32.35
13666169,1966,1,211634,244242,1.27,0.16,9.93,-0.03,-0.01,-0.00,32.35
13706170,1937,1,211579,244270,1.26,0.16,9.94,-0.03,-0.01,-0.00,32.35
13746170,1962,1,211633,244472,1.25,0.16,9.92,-0.03,-0.01,-0.00,32.35
13786170,1942,1,211769,244716,1.26,0.15,9.95,-0.03,-0.01,-0.00,32.35
13826169,1936,1,211826,245035,1.27,0.16,9.95,-0.03,-0.01,-0.00,32.35
13866170,1949,1,211912,245214,1.25,0.17,9.95,-0.03,-0.01,-0.00,32.35
13906169,1913,1,211982,245371,1.26,0.16,9.94,-0.03,-0.01,-0.00,32.35
13946170,1919,1,212099,245680,1.27,0.14,9.90,-0.03,-0.01,-0.00,32.35
13984170,2015,1,212237,245858,1.28,0.15,9.89,-0.03,-0.01,-0.00,32.35
14024197,2018,1,212251,245686,1.24,0.15,9.93,-0.03,-0.01,-0.00,32.35
14064169,2006,1,211917,244132,1.26,0.16,9.89,-0.03,-0.01,-0.00,32.35
14104169,2009,1,211322,242674,1.25,0.16,9.88,-0.03,-0.01,-0.00,32.35
14144169,2001,1,211032,242171,1.25,0.15,9.92,-0.03,-0.01,-0.00,32.35
14184170,2021,1,210993,242251,1.27,0.17,9.92,-0.03,-0.01,-0.00,32.35
14224170,2007,1,211058,242366,1.28,0.14,9.93,-0.03,-0.01,-0.00,32.35
14264170,1989,1,211125,242687,1.27,0.16,9.93,-0.03,-0.01,-0.00,32.35
14304169,2015,1,211309,243115,1.25,0.15,9.91,-0.03,-0.01,-0.00,32.35
14344856,1936,1,211351,243177,1.25,0.16,9.92,-0.03,-0.01,-0.00,32.33
14385170,1959,1,211381,243177,1.25,0.16,9.89,-0.03,-0.01,-0.00,32.33
14425170,1984,1,211396,243367,1.26,0.16,9.91,-0.03,-0.01,-0.00,32.33
14465170,1943,1,211483,243658,1.27,0.16,9.90,-0.03,-0.01,-0.00,32.33
14505170,1940,1,211607,244038,1.28,0.15,9.93,-0.03,-0.01,-0.00,32.33
14545186,1949,1,211726,244400,1.27,0.15,9.94,-0.03,-0.01,-0.00,32.33
14585170,1963,1,211869,244743,1.26,0.16,9.92,-0.03,-0.01,-0.00,32.33
14625169,1936,1,212005,245013,1.27,0.14,9.90,-0.03,-0.01,-0.00,32.33
14665170,1966,1,212105,245346,1.27,0.17,9.90,-0.03,-0.01,-0.00,32.33
14705169,1958,1,212186,245534,1.27,0.15,9.93,-0.03,-0.01,-0.00,32.33
14745202,1946,1,212045,244424,1.27,0.16,9.91,-0.03,-0.01,-0.00,32.33
14785169,1937,1,211450,243018,1.26,0.16,9.90,-0.03,-0.01,-0.00,32.33
14825170,1949,1,211098,242505,1.24,0.17,9.91,-0.03,-0.01,-0.00,32.33
14865169,1951,1,211111,242659,1.26,0.15,9.94,-0.03,-0.01,-0.00,32.33
14905170,1947,1,211129,242725,1.27,0.15,9.92,-0.03,-0.01,-0.00,32.33
14945188,1975,1,211196,243055,1.25,0.15,9.93,-0.03,-0.01,-0.00,32.33
14985170,1968,1,211341,243425,1.26,0.15,9.91,-0.03,-0.01,-0.00,32.33
15025174,1991,1,211414,243542,1.26,0.16,9.94,-0.03,-0.01,-0.00,32.33
15065170,1941,1,211399,243572,1.28,0.14,9.91,-0.03,-0.02,-0.00,32.33
15105169,1936,1,211415,243785,1.27,0.17,9.90,-0.03,-0.01,-0.00,32.33
15145170,1961,1,211557,244172,1.26,0.17,9.92,-0.03,-0.01,-0.01,32.33
15184170,1984,1,211677,244600,1.28,0.17,9.93,-0.03,-0.01,-0.00,32.33
15224170,1998,1,211828,244962,1.26,0.17,9.91,-0.03,-0.01,-0.00,32.33
15264169,1989,1,211915,245206,1.26,0.16,9.92,-0.03,-0.01,-0.00,32.33
15304170,1995,1,211984,245433,1.27,0.18,9.92,-0.03,-0.01,-0.00,32.33
15344856,1962,1,212118,245696,1.28,0.17,9.91,-0.03,-0.01,-0.00,32.19
15385170,1950,1,212192,245930,1.26,0.16,9.90,-0.03,-0.01,-0.00,32.19
15425169,1920,1,212162,244959,1.27,0.14,9.94,-0.03,-0.01,-0.00,32.19
15465170,1973,1,211588,243440,1.26,0.16,9.94,-0.03,-0.01,-0.00,32.19
15505169,1967,1,211230,242811,1.27,0.16,9.89,-0.03,-0.01,-0.00,32.19
15545170,1955,1,211208,243014,1.26,0.14,9.93,-0.03,-0.01,-0.00,32.19
15585169,1953,1,211279,243204,1.27,0.14,9.91,-0.03,-0.01,-0.01,32.19
15625170,1951,1,211402,243632,1.26,0.15,9.91,-0.03,-0.01,-0.00,32.19
15665169,1935,1,211567,243855,1.27,0.15,9.92,-0.03,-0.01,-0.00,32.19
15705170,1982,1,211706,243937,1.27,0.15,9.95,-0.03,-0.01,-0.01,32.19
15745170,1953,1,211636,243835,1.28,0.16,9.93,-0.03,-0.01,-0.00,32.19
15785170,1939,1,211639,243966,1.25,0.17,9.93,-0.03,-0.01,-0.00,32.19
15825170,1939,1,211705,244263,1.26,0.14,9.89,-0.03,-0.01,-0.00,32.19
15865170,1926,1,211807,244517,1.27,0.15,9.91,-0.03,-0.01,-0.00,32.19
15905170,1931,1,211897,244785,1.27,0.17,9.92,-0.03,-0.01,-0.00,32.19
15945170,1953,1,211958,245040,1.24,0.15,9.93,-0.03,-0.01,-0.00,32.19
15985170,1970,1,212009,245212,1.26,0.17,9.92,-0.03,-0.01,-0.01,32.19
16025174,1977,1,212060,245384,1.26,0.15,9.93,-0.03,-0.01,-0.00,32.19
16065169,1959,1,211981,244646,1.27,0.14,9.92,-0.03,-0.01,-0.00,32.19
16105170,1941,1,211482,242947,1.25,0.16,9.89,-0.03,-0.01,-0.00,32.19
16145169,1938,1,210996,242050,1.27,0.16,9.93,-0.03,-0.01,-0.00,32.19
16184172,1983,1,210887,242044,1.27,0.15,9.91,-0.03,-0.01,-0.00,32.19
16224170,1968,1,210934,242231,1.27,0.15,9.93,-0.03,-0.01,-0.00,32.19
16264170,1968,1,210994,242600,1.28,0.16,9.91,-0.03,-0.01,-0.00,32.19
16304169,2022,1,211149,243022,1.27,0.17,9.91,-0.03,-0.01,-0.00,32.19
16344170,1995,1,211199,243218,1.25,0.14,9.94,-0.03,-0.01,-0.00,32.19
16384884,1950,1,211096,243224,1.27,0.16,9.93,-0.03,-0.01,-0.00,32.21
16425170,1974,1,211108,243378,1.27,0.17,9.95,-0.03,-0.01,-0.00,32.21
16465169,1942,1,211205,243692,1.27,0.15,9.89,-0.03,-0.01,-0.00,32.21
16505169,1947,1,211349,244009,1.26,0.18,9.92,-0.03,-0.01,-0.01,32.21
16545169,1968,1,211503,244407,1.25,0.15,9.94,-0.03,-0.01,-0.00,32.21
16585170,1963,1,211577,244617,1.26,0.14,9.93,-0.03,-0.01,-0.00,32.21
16625170,1963,1,211683,244837,1.25,0.16,9.88,-0.03,-0.01,-0.00,32.21
16665170,1969,1,211720,245015,1.24,0.16,9.93,-0.03,-0.01,-0.00,32.21
16705169,1957,1,211803,245081,1.26,0.13,9.95,-0.03,-0.01,-0.00,32.21
16745169,1943,1,211652,244005,1.27,0.17,9.89,-0.03,-0.01,-0.00,32.21
16785170,1965,1,211006,242205,1.26,0.13,9.93,-0.03,-0.01,-0.00,32.21
16825170,1968,1,210551,241382,1.26,0.16,9.93,-0.03,-0.01,-0.00,32.21
16865169,1983,1,210469,241400,1.27,0.15,9.91,-0.03,-0.01,-0.00,32.21
16903170,2037,1,210539,241558,1.27,0.13,9.93,-0.03,-0.01,-0.00,32.21
16943170,2034,1,210602,241826,1.29,0.17,9.94,-0.03,-0.01,-0.00,32.21
16983170,2047,1,210739,242235,1.25,0.16,9.92,-0.03,-0.01,-0.00,32.21
17023186,2005,1,210875,242465,1.25,0.16,9.93,-0.03,-0.01,-0.00,32.21
17063170,2021,1,210959,242551,1.26,0.17,9.90,-0.03,-0.01,-0.00,32.21
17103169,2006,1,211034,242633,1.26,0.18,9.89,-0.03,-0.01,-0.00,32.21
17143170,1999,1,211148,243002,1.27,0.16,9.93,-0.03,-0.01,-0.00,32.21
17183169,2007,1,211363,243377,1.27,0.16,9.92,-0.03,-0.01,-0.00,32.21
17223170,2020,1,211511,243910,1.26,0.16,9.91,-0.03,-0.01,-0.00,32.21
17263170,2009,1,211703,244398,1.27,0.15,9.92,-0.03,-0.01,-0.00,32.21
17303170,2017,1,211816,244756,1.27,0.16,9.91,-0.03,-0.01,-0.00,32.21
17343170,2002,1,211918,245121,1.27,0.16,9.91,-0.03,-0.01,-0.00,32.21
17383170,2007,1,212032,245384,1.26,0.15,9.97,-0.03,-0.01,-0.00,32.21
17423856,1968,1,212036,245084,1.24,0.15,9.92,-0.03,-0.01,-0.00,32.09
17464169,1953,1,211711,243586,1.25,0.16,9.92,-0.03,-0.01,-0.00,32.09
17504169,1978,1,211108,242326,1.26,0.15,9.93,-0.03,-0.01,-0.00,32.09
17544170,1968,1,210908,242060,1.26,0.16,9.94,-0.03,-0.01,-0.00,32.09
17584169,1961,1,210912,242180,1.25,0.17,9.91,-0.03,-0.01,-0.00,32.09
17624170,1975,1,210968,242353,1.26,0.17,9.92,-0.03,-0.01,-0.00,32.09
17664169,1953,1,211101,242887,1.28,0.15,9.92,-0.03,-0.01,-0.00,32.09
17704170,1947,1,211274,243242,1.26,0.19,9.93,-0.03,-0.01,-0.00,32.09
17744169,1966,1,211380,243530,1.25,0.13,9.93,-0.03,-0.01,-0.00,32.09
17784169,1961,1,211385,243801,1.25,0.16,9.92,-0.03,-0.01,-0.00,32.09
17824169,1935,1,211525,244065,1.25,0.14,9.90,-0.03,-0.01,-0.00,32.09
17864170,1936,1,211630,244483,1.25,0.15,9.92,-0.03,-0.01,-0.00,32.09
17904169,1962,1,211806,244952,1.26,0.15,9.93,-0.03,-0.01,-0.00,32.09
17944170,1983,1,211990,245383,1.24,0.15,9.92,-0.03,-0.01,-0.00,32.09
17984169,1951,1,212141,245745,1.27,0.15,9.93,-0.03,-0.01,-0.00,32.09
18024213,1966,1,212267,246048,1.26,0.15,9.92,-0.03,-0.01,-0.00,32.09
18064169,1995,1,212372,246388,1.27,0.17,9.94,-0.03,-0.01,-0.00,32.09
18104170,1987,1,212510,246707,1.25,0.17,9.95,-0.03,-0.01,-0.00,32.09
18144169,1959,1,212569,246472,1.27,0.16,9.92,-0.03,-0.01,-0.00,32.09
18184170,1971,1,212233,245134,1.25,0.16,9.90,-0.03,-0.01,-0.00,32.09
18224196,1984,1,211793,244283,1.24,0.16,9.94,-0.03,-0.01,-0.00,32.09
18264170,1967,1,211623,244223,1.25,0.16,9.94,-0.03,-0.01,-0.00,32.09
18304169,1958,1,211725,244369,1.25,0.16,9.90,-0.03,-0.01,-0.00,32.09
18344170,1974,1,211813,244569,1.24,0.13,9.94,-0.03,-0.01,-0.00,32.09
18384169,1975,1,211920,244980,1.24,0.13,9.94,-0.03,-0.01,-0.00,32.09
18424856,1953,1,212030,245304,1.24,0.15,9.92,-0.03,-0.01,-0.00,32.11
18463169,1966,1,212127,245340,1.27,0.16,9.92,-0.03,-0.01,-0.00,32.11
18503170,1982,1,212140,245451,1.25,0.13,9.90,-0.03,-0.01,-0.00,32.11
18543169,1987,1,212235,245689,1.26,0.15,9.89,-0.03,-0.01,-0.00,32.11
18583170,1987,1,212360,245997,1.26,0.15,9.93,-0.03,-0.01,-0.00,32.11
18623169,2005,1,212481,246248,1.26,0.14,9.91,-0.03,-0.01,-0.00,32.11
18663170,1984,1,212554,246471,1.26,0.15,9.92,-0.03,-0.01,-0.00,32.11
18703169,1985,1,212628,246703,1.25,0.17,9.93,-0.03,-0.01,-0.00,32.11
18743170,1985,1,212694,246952,1.26,0.14,9.91,-0.03,-0.01,-0.01,32.11
18783169,1967,1,212754,247076,1.26,0.15,9.93,-0.03,-0.01,-0.00,32.11
18823170,1983,1,212782,246989,1.26,0.12,9.92,-0.03,-0.01,-0.00,32.11
18863169,1983,1,212480,245700,1.27,0.17,9.91,-0.03,-0.01,-0.00,32.11
18903170,1955,1,211994,244733,1.27,0.15,9.91,-0.03,-0.01,-0.00,32.11
18943169,1946,1,211798,244512,1.26,0.14,9.92,-0.03,-0.01,-0.00,32.11
18983169,1961,1,211775,244582,1.27,0.16,9.91,-0.03,-0.01,-0.00,32.11
19023186,1971,1,211768,244495,1.27,0.16,9.93,-0.03,-0.01,-0.00,32.11
19063170,1972,1,211799,244803,1.25,0.15,9.92,-0.03,-0.01,-0.00,32.11
19103170,1964,1,211889,245017,1.26,0.16,9.93,-0.03,-0.01,-0.00,32.11
19143170,1959,1,211913,245026,1.26,0.15,9.92,-0.03,-0.01,-0.01,32.11
19183170,1958,1,211932,245132,1.27,0.16,9.95,-0.03,-0.01,-0.00,32.11
19223170,1961,1,211935,245278,1.26,0.16,9.94,-0.03,-0.01,-0.00,32.11
19263170,1971,1,211986,245594,1.27,0.15,9.92,-0.03,-0.01,-0.00,32.11
19303170,1968,1,212132,245858,1.27,0.16,9.94,-0.03,-0.01,-0.00,32.11
19343169,1987,1,212208,246202,1.28,0.16,9.91,-0.03,-0.01,-0.00,32.11
19383170,1971,1,212287,246418,1.27,0.15,9.92,-0.03,-0.01,-0.00,32.11
19423170,1981,1,212412,246605,1.27,0.15,9.91,-0.03,-0.01,-0.00,32.11
19463856,1972,1,212421,246891,1.27,0.15,9.93,-0.03,-0.01,-0.00,32.19
19504169,1972,1,212424,247029,1.25,0.15,9.91,-0.03,-0.01,-0.00,32.19
19544170,1966,1,212324,246091,1.24,0.17,9.91,-0.03,-0.01,-0.00,32.19
19584170,1956,1,211816,244545,1.27,0.17,9.91,-0.03,-0.01,-0.00,32.19
19624170,1958,1,211372,243755,1.28,0.16,9.91,-0.03,-0.01,-0.00,32.19
19664173,1967,1,211294,243726,1.26,0.14,9.94,-0.03,-0.01,-0.00,32.19
19704170,1991,1,211285,243809,1.27,0.16,9.92,-0.03,-0.01,-0.00,32.19
19744169,1975,1,211353,244039,1.25,0.16,9.94,-0.03,-0.01,-0.00,32.19
19784170,1978,1,211484,244401,1.25,0.16,9.96,-0.03,-0.01,-0.00,32.19
19824169,1983,1,211557,244571,1.25,0.14,9.91,-0.03,-0.01,-0.00,32.19
19862175,2066,1,211634,244616,1.25,0.15,9.90,-0.03,-0.01,-0.00,32.19
19902169,2046,1,211629,244684,1.25,0.14,9.91,-0.03,-0.01,-0.00,32.19
19942170,2032,1,211720,244915,1.26,0.14,9.93,-0.03,-0.01,-0.00,32.19
19982170,2027,1,211826,245252,1.26,0.15,9.93,-0.03,-0.01,-0.00,32.19
20022170,2058,1,211955,245604,1.27,0.17,9.93,-0.03,-0.01,-0.00,32.19
20062169,2031,1,212055,245885,1.26,0.16,9.92,-0.03,-0.01,-0.00,32.19
20102170,2053,1,212229,246088,1.24,0.16,9.92,-0.03,-0.01,-0.00,32.19
20142170,2034,1,212298,246247,1.27,0.15,9.92,-0.03,-0.01,-0.00,32.19
20182170,2032,1,212434,246524,1.25,0.16,9.90,-0.03,-0.01,-0.00,32.19
20222169,2023,1,212489,246635,1.25,0.15,9.95,-0.03,-0.01,-0.00,32.19
20262170,2030,1,212345,245634,1.28,0.16,9.91,-0.03,-0.01,-0.00,32.19
20302169,2017,1,211789,244199,1.24,0.15,9.92,-0.03,-0.01,-0.00,32.19
20342170,2031,1,211412,243585,1.27,0.13,9.96,-0.03,-0.01,-0.00,32.19
20382170,2022,1,211338,243609,1.27,0.15,9.89,-0.03,-0.01,-0.00,32.19
20422170,2032,1,211376,243788,1.25,0.14,9.93,-0.03,-0.01,-0.00,32.19
20462169,2032,1,211454,244081,1.27,0.14,9.91,-0.03,-0.01,-0.00,32.19
20502856,1979,1,211615,244495,1.27,0.15,9.92,-0.03,-0.01,-0.00,32.17
20543169,1985,1,211707,244608,1.27,0.17,9.92,-0.03,-0.01,-0.01,32.17
20583170,1968,1,211737,244668,1.25,0.16,9.92,-0.03,-0.01,-0.01,32.17
20623169,1981,1,211771,244870,1.27,0.13,9.94,-0.03,-0.01,-0.00,32.17
20663170,1971,1,211819,245208,1.28,0.16,9.92,-0.03,-0.01,-0.00,32.17
20703170,1981,1,211955,245529,1.27,0.15,9.93,-0.03,-0.01,-0.00,32.17
20743170,1978,1,212083,245949,1.26,0.15,9.89,-0.03,-0.01,-0.00,32.17
20783170,1995,1,212219,246306,1.27,0.15,9.88,-0.03,-0.01,-0.00,32.17
20823169,1968,1,212311,246575,1.27,0.14,9.93,-0.03,-0.01,-0.00,32.17
20863170,1951,1,212398,246851,1.26,0.16,9.90,-0.03,-0.01,-0.00,32.17
20903170,1930,1,212496,247170,1.26,0.16,9.91,-0.03,-0.01,-0.00,32.17
20943169,1957,1,212624,247445,1.24,0.15,9.93,-0.03,-0.01,-0.00,32.17
20983170,1968,1,212658,247228,1.26,0.14,9.90,-0.03,-0.01,-0.00,32.17
21023187,1977,1,212282,245757,1.28,0.16,9.94,-0.03,-0.01,-0.01,32.17
21063170,1968,1,211776,244639,1.24,0.15,9.91,-0.03,-0.01,-0.00,32.17
21103169,1969,1,211578,244425,1.27,0.16,9.93,-0.03,-0.01,-0.00,32.17
21143170,1974,1,211628,244584,1.29,0.15,9.94,-0.03,-0.01,-0.00,32.17
21183170,1954,1,211718,244811,1.26,0.14,9.93,-0.03,-0.01,-0.00,32.17
21223170,1971,1,211820,245230,1.26,0.13,9.92,-0.03,-0.01,-0.00,32.17
21263170,1974,1,212017,245610,1.24,0.17,9.90,-0.03,-0.01,-0.00,32.17
21303173,1977,1,212066,245621,1.28,0.17,9.95,-0.03,-0.01,-0.00,32.17
21343169,1988,1,212142,245696,1.28,0.15,9.90,-0.03,-0.01,-0.00,32.17
21383170,2009,1,212176,246055,1.27,0.15,9.94,-0.03,-0.01,-0.00,32.17
21423169,1965,1,212356,246388,1.28,0.16,9.95,-0.03,-0.01,-0.00,32.17
21463170,1981,1,212523,246783,1.28,0.14,9.92,-0.03,-0.01,-0.00,32.17
21503905,1965,1,212650,247179,1.27,0.16,9.92,-0.03,-0.01,-0.00,31.95
21542169,1993,1,212839,247630,1.27,0.16,9.93,-0.03,-0.01,-0.01,31.95
21582169,1973,1,212964,247858,1.25,0.15,9.94,-0.03,-0.01,-0.00,31.95
21622170,1968,1,213089,248176,1.26,0.15,9.91,-0.03,-0.01,-0.00,31.95
21662169,2003,1,213226,248530,1.26,0.16,9.92,-0.03,-0.01,-0.00,31.95
21702170,1997,1,213348,248855,1.24,0.15,9.91,-0.03,-0.01,-0.00,31.95
21742169,2007,1,213357,248090,1.27,0.16,9.91,-0.03,-0.01,-0.00,31.95
21782170,1994,1,212784,246570,1.26,0.14,9.97,-0.03,-0.01,-0.00,31.95
21822169,2006,1,212414,245991,1.25,0.15,9.93,-0.03,-0.01,-0.00,31.95
21862170,1999,1,212386,246133,1.25,0.14,9.94,-0.03,-0.01,-0.00,31.95
21902169,2014,1,212459,246369,1.25,0.15,9.93,-0.03,-0.01,-0.00,31.95
21942170,1978,1,212578,246697,1.25,0.15,9.94,-0.03,-0.01,-0.00,31.95
21982170,1993,1,212747,247166,1.26,0.13,9.93,-0.03,-0.01,-0.00,31.95
22022170,2016,1,212904,247363,1.25,0.16,9.96,-0.03,-0.01,-0.00,31.95
22062170,2006,1,212924,247342,1.26,0.15,9.92,-0.03,-0.01,-0.00,31.95
22102170,2015,1,212893,247568,1.27,0.14,9.91,-0.03,-0.01,-0.00,31.95
22142170,1973,1,212989,248368,1.25,0.15,9.92,-0.04,-0.02,-0.00,31.95
22182170,1987,1,213390,249294,1.30,0.13,9.93,-0.04,-0.02,-0.00,31.95
22222169,1965,1,213625,249846,1.27,0.14,9.90,-0.04,-0.02,-0.00,31.95
22262170,1965,1,213679,250307,1.27,0.15,9.95,-0.03,-0.01,-0.00,31.95
22302169,1957,1,213831,250481,1.29,0.15,9.90,-0.03,-0.01,-0.00,31.95
22342170,1962,1,213919,250618,1.27,0.14,9.93,-0.03,-0.01,-0.00,31.95
22382170,1936,1,213914,250746,1.29,0.13,9.94,-0.03,-0.01,-0.00,31.95
22422170,1936,1,213946,250235,1.28,0.15,9.93,-0.03,-0.01,-0.01,31.95
22462169,1966,1,213347,248242,1.28,0.14,9.92,-0.03,-0.01,-0.00,31.95
22502170,1985,1,212830,247328,1.27,0.15,9.92,-0.03,-0.01,-0.00,31.95
22542856,1965,1,212613,247163,1.28,0.14,9.92,-0.03,-0.01,-0.00,32.03
22583170,2000,1,212650,247308,1.28,0.15,9.92,-0.03,-0.01,-0.00,32.03
22623169,1983,1,212691,247460,1.27,0.17,9.95,-0.03,-0.01,-0.00,32.03
22663170,2011,1,212787,247786,1.27,0.15,9.90,-0.03,-0.01,-0.01,32.03
22703169,2001,1,212906,247894,1.27,0.16,9.93,-0.03,-0.01,-0.00,32.03
22743170,2001,1,212861,247772,1.27,0.13,9.90,-0.03,-0.01,-0.00,32.03
22781169,2063,1,212859,247747,1.28,0.15,9.92,-0.03,-0.01,-0.00,32.03
22821170,2094,1,212877,247919,1.26,0.16,9.91,-0.03,-0.01,-0.00,32.03
22861169,2069,1,212932,248173,1.30,0.15,9.92,-0.03,-0.01,-0.00,32.03
22901170,2066,1,213030,248377,1.27,0.17,9.90,-0.03,-0.01,-0.00,32.03
22941174,2075,1,213164,248607,1.29,0.15,9.91,-0.03,-0.01,-0.00,32.03
22981169,2047,1,213217,248749,1.27,0.13,9.91,-0.03,-0.01,-0.00,32.03
23021177,2087,1,213310,248835,1.28,0.14,9.90,-0.03,-0.01,-0.00,32.03
23061169,2079,1,213386,248957,1.28,0.17,9.92,-0.03,-0.01,-0.00,32.03
23101169,2086,1,213377,249065,1.27,0.15,9.93,-0.03,-0.01,-0.00,32.03
23141194,2064,1,213291,247999,1.28,0.14,9.90,-0.03,-0.01,-0.01,32.03
23181169,2067,1,212655,246470,1.26,0.15,9.90,-0.03,-0.01,-0.00,32.03
23221169,2043,1,212230,245768,1.28,0.15,9.93,-0.03,-0.01,-0.00,32.03
23261170,2064,1,212118,245649,1.28,0.14,9.90,-0.03,-0.01,-0.00,32.03
23301170,2034,1,212089,245681,1.27,0.15,9.93,-0.03,-0.01,-0.00,32.03
23341180,2065,1,212126,245774,1.28,0.14,9.92,-0.03,-0.01,-0.00,32.03
23381169,2027,1,212129,246073,1.27,0.16,9.94,-0.03,-0.01,-0.00,32.03
23421169,2028,1,212239,246261,1.28,0.16,9.90,-0.03,-0.01,-0.00,32.03
23461169,1996,1,212228,246266,1.28,0.16,9.91,-0.03,-0.01,-0.00,32.03
23501169,1999,1,212234,246348,1.28,0.14,9.91,-0.03,-0.01,-0.00,32.03
23541169,2000,1,212228,246570,1.26,0.14,9.93,-0.03,-0.01,-0.01,32.03
23581855,1973,1,212416,246982,1.30,0.16,9.92,-0.03,-0.01,-0.00,31.81
23622169,1990,1,212505,247287,1.30,0.15,9.93,-0.03,-0.01,-0.00,31.81
23662169,1958,1,212670,247675,1.29,0.16,9.92,-0.03,-0.01,-0.00,31.81
23702170,1992,1,212770,247990,1.28,0.14,9.94,-0.03,-0.01,-0.00,31.81
23742170,1970,1,212841,248189,1.28,0.13,9.92,-0.03,-0.01,-0.00,31.81
23782170,1988,1,212969,248536,1.25,0.15,9.90,-0.03,-0.01,-0.00,31.81
23822170,1998,1,213062,248704,1.27,0.14,9.90,-0.03,-0.01,-0.00,31.81
23862170,1966,1,212907,247374,1.28,0.15,9.93,-0.03,-0.01,-0.01,31.81
23902169,1983,1,212289,246110,1.27,0.16,9.90,-0.03,-0.01,-0.00,31.81
23942170,1949,1,212001,245740,1.27,0.16,9.95,-0.03,-0.01,-0.00,31.81
23982169,1994,1,212006,245870,1.27,0.16,9.91,-0.03,-0.01,-0.00,31.81
24022170,2011,1,212035,245987,1.29,0.14,9.93,-0.03,-0.01,-0.00,31.81
24062169,1984,1,212095,246279,1.29,0.16,9.91,-0.03,-0.01,-0.00,31.81
24102170,2000,1,212237,246653,1.26,0.15,9.93,-0.03,-0.01,-0.01,31.81
24142170,1959,1,212332,246730,1.29,0.16,9.92,-0.03,-0.01,-0.01,31.81
24181170,2015,1,212355,246782,1.28,0.14,9.91,-0.03,-0.01,-0.00,31.81
24221169,2000,1,212361,246912,1.26,0.15,9.92,-0.03,-0.01,-0.00,31.81
24261170,2027,1,212488,247231,1.27,0.17,9.92,-0.03,-0.01,-0.00,31.81
24301170,2016,1,212616,247609,1.29,0.15,9.93,-0.03,-0.01,-0.00,31.81
24341170,2015,1,212724,247940,1.28,0.15,9.92,-0.03,-0.01,-0.00,31.81
24381169,2016,1,212878,248251,1.28,0.16,9.92,-0.03,-0.01,-0.00,31.81
24421169,2003,1,212972,248541,1.27,0.16,9.93,-0.03,-0.01,-0.00,31.81
24461170,2003,1,213076,248751,1.30,0.15,9.92,-0.03,-0.01,-0.00,31.81
24501170,2015,1,213153,248973,1.28,0.15,9.93,-0.03,-0.01,-0.00,31.81
24541169,1989,1,213263,249066,1.29,0.15,9.93,-0.03,-0.01,-0.00,31.81
24581857,1971,1,213129,247805,1.28,0.15,9.89,-0.03,-0.01,-0.00,31.63
24622169,1991,1,212482,246374,1.29,0.16,9.92,-0.03,-0.01,-0.00,31.63
24662170,1991,1,212184,245978,1.27,0.14,9.91,-0.03,-0.01,-0.00,31.63
24702170,1978,1,212152,246051,1.28,0.15,9.95,-0.03,-0.01,-0.00,31.63
24742170,1980,1,212214,246257,1.28,0.15,9.93,-0.03,-0.01,-0.00,31.63
24782173,1982,1,212223,246563,1.27,0.14,9.97,-0.03,-0.01,-0.00,31.63
24822170,1997,1,212386,247046,1.29,0.15,9.92,-0.03,-0.01,-0.00,31.63
24862169,1999,1,212482,247232,1.27,0.17,9.90,-0.03,-0.01,-0.00,31.63
24902170,1997,1,212518,247203,1.27,0.16,9.92,-0.03,-0.01,-0.00,31.63
24942170,1979,1,212531,247331,1.26,0.13,9.90,-0.03,-0.01,-0.00,31.63
24982187,1991,1,212531,247680,1.27,0.15,9.93,-0.03,-0.01,-0.01,31.63
25022169,1986,1,212719,248079,1.28,0.13,9.93,-0.03,-0.01,-0.00,31.63
25062169,2032,1,212820,248370,1.28,0.15,9.92,-0.03,-0.01,-0.00,31.63
25102170,1994,1,212972,248700,1.27,0.14,9.90,-0.03,-0.01,-0.00,31.63
25142170,2003,1,213030,249114,1.27,0.16,9.92,-0.03,-0.01,-0.00,31.63
25182169,2005,1,213278,249349,1.27,0.14,9.93,-0.03,-0.01,-0.00,31.63
25221170,2015,1,213363,249718,1.27,0.15,9.93,-0.03,-0.01,-0.00,31.63
25261169,2031,1,213439,249780,1.24,0.14,9.92,-0.03,-0.01,-0.00,31.63
25301170,2021,1,213197,248266,1.28,0.14,9.94,-0.03,-0.01,-0.01,31.63
25341170,2009,1,212611,246960,1.28,0.15,9.91,-0.03,-0.01,-0.00,31.63
25381170,2027,1,212353,246838,1.26,0.14,9.92,-0.03,-0.01,-0.00,31.63
25421170,1991,1,212399,247098,1.28,0.14,9.90,-0.03,-0.01,-0.00,31.63
25461169,1989,1,212487,247345,1.26,0.12,9.95,-0.03,-0.01,-0.00,31.63
25501170,1997,1,212611,247761,1.25,0.14,9.90,-0.03,-0.01,-0.00,31.63
25541170,2001,1,212819,248127,1.29,0.15,9.91,-0.03,-0.01,-0.00,31.63
25581856,1956,1,212832,248072,1.26,0.17,9.93,-0.03,-0.01,-0.01,31.77
25622170,1991,1,212784,247959,1.28,0.16,9.94,-0.03,-0.01,-0.00,31.77
25662169,1984,1,212715,248143,1.27,0.15,9.92,-0.03,-0.01,-0.00,31.77
25702170,1982,1,212873,248412,1.27,0.13,9.91,-0.03,-0.01,-0.00,31.77
25742170,1963,1,212943,248668,1.26,0.14,9.92,-0.03,-0.01,-0.00,31.77
25780170,2043,1,213054,248866,1.29,0.16,9.90,-0.03,-0.01,-0.00,31.77
25820169,2046,1,213114,249082,1.26,0.15,9.91,-0.03,-0.01,-0.00,31.77
25860170,2071,1,213106,249237,1.26,0.15,9.89,-0.03,-0.01,-0.00,31.77
25900169,2060,1,213206,249311,1.29,0.15,9.91,-0.03,-0.01,-0.00,31.77
25940170,2045,1,213147,249116,1.28,0.15,9.92,-0.03,-0.01,-0.00,31.77
25980170,2042,1,212834,247328,1.26,0.16,9.92,-0.03,-0.01,-0.00,31.77
26020170,2006,1,212246,246341,1.29,0.15,9.90,-0.03,-0.01,-0.00,31.77
26060169,2025,1,212110,246208,1.27,0.14,9.91,-0.03,-0.01,-0.00,31.77
26100170,2032,1,212131,246431,1.26,0.15,9.92,-0.03,-0.01,-0.00,31.77
26140169,2033,1,212239,246598,1.26,0.14,9.93,-0.03,-0.01,-0.00,31.77
26180170,2023,1,212374,246963,1.26,0.15,9.93,-0.03,-0.01,-0.00,31.77
26221169,1993,1,212470,247175,1.26,0.16,9.91,-0.03,-0.01,-0.00,31.77
26261170,2000,1,212461,247124,1.28,0.15,9.91,-0.03,-0.01,-0.00,31.77
26301169,2003,1,212430,247130,1.27,0.14,9.91,-0.03,-0.01,-0.00,31.77
26341170,1981,1,212444,247289,1.27,0.14,9.91,-0.03,-0.01,-0.00,31.77
26381170,2000,1,212516,247599,1.30,0.15,9.94,-0.03,-0.02,-0.00,31.77
26421206,2017,1,212624,247916,1.28,0.15,9.91,-0.03,-0.01,-0.00,31.77
26461169,2001,1,212710,248059,1.29,0.14,9.91,-0.03,-0.01,-0.00,31.77
26501170,1984,1,212700,248360,1.27,0.15,9.93,-0.03,-0.02,-0.00,31.77
26541170,1984,1,212858,248589,1.29,0.16,9.92,-0.03,-0.01,-0.00,31.77
26581856,1979,1,212914,248833,1.29,0.14,9.91,-0.03,-0.01,-0.00,31.85
26620170,2017,1,212847,247939,1.29,0.16,9.93,-0.03,-0.01,-0.00,31.85
26660170,2030,1,212284,246287,1.29,0.14,9.92,-0.03,-0.01,-0.00,31.85
26700170,2035,1,211849,245731,1.29,0.14,9.92,-0.03,-0.01,-0.00,31.85
26740170,2026,1,211731,245892,1.29,0.14,9.92,-0.03,-0.01,-0.00,31.85
26780169,2011,1,211784,246006,1.28,0.15,9.90,-0.03,-0.01,-0.00,31.85
26820170,2047,1,211940,246263,1.30,0.16,9.91,-0.03,-0.01,-0.00,31.85
26860169,2032,1,212061,246711,1.28,0.16,9.93,-0.03,-0.01,-0.00,31.85
26900170,2018,1,212185,246966,1.27,0.14,9.93,-0.03,-0.01,-0.00,31.85
26940170,2053,1,212117,247040,1.28,0.15,9.92,-0.03,-0.01,-0.00,31.85
26980169,2038,1,212223,247103,1.28,0.12,9.93,-0.03,-0.01,-0.01,31.85
27020169,2064,1,212282,247339,1.28,0.16,9.93,-0.03,-0.01,-0.00,31.85
27060170,2043,1,212332,247554,1.29,0.15,9.95,-0.03,-0.01,-0.00,31.85
27100169,2042,1,212439,247746,1.29,0.13,9.90,-0.03,-0.01,-0.00,31.85
27140170,2031,1,212495,247810,1.30,0.16,9.92,-0.03,-0.01,-0.00,31.85
27180169,2043,1,212522,247940,1.29,0.15,9.93,-0.03,-0.01,-0.00,31.85
27220169,2043,1,212567,248195,1.28,0.15,9.91,-0.03,-0.01,-0.00,31.85
27261169,1997,1,212636,248364,1.27,0.11,9.91,-0.03,-0.01,-0.00,31.85
27301170,1991,1,212633,247876,1.27,0.15,9.96,-0.03,-0.01,-0.00,31.85
27341169,1995,1,212187,246108,1.30,0.16,9.94,-0.03,-0.01,-0.00,31.85
27381170,1977,1,211649,245256,1.28,0.15,9.93,-0.03,-0.01,-0.00,31.85
27421170,1969,1,211508,245199,1.29,0.14,9.93,-0.03,-0.01,-0.00,31.85
27461169,1979,1,211564,245220,1.28,0.15,9.92,-0.03,-0.01,-0.00,31.85
27501169,1984,1,211577,245257,1.30,0.15,9.91,-0.03,-0.01,-0.00,31.85
27541169,1989,1,211660,245571,1.30,0.14,9.92,-0.03,-0.01,-0.01,31.85
27581170,1979,1,211835,245859,1.27,0.14,9.92,-0.03,-0.01,-0.00,31.85
27621856,1984,1,211832,245826,1.29,0.15,9.93,-0.03,-0.01,-0.00,32.05
27660169,2001,1,211885,245973,1.28,0.15,9.92,-0.03,-0.01,-0.00,32.05
27700169,2011,1,211997,246269,1.27,0.14,9.91,-0.03,-0.01,-0.00,32.05
27740170,2003,1,212121,246697,1.28,0.17,9.84,-0.04,-0.01,-0.00,32.05
27780170,2011,1,212205,247096,1.29,0.14,9.90,-0.03,-0.01,-0.00,32.05
27820169,2037,1,212337,247315,1.29,0.15,9.92,-0.03,-0.01,-0.00,32.05
27860169,1996,1,212351,247605,1.28,0.14,9.93,-0.03,-0.01,-0.00,32.05
27900170,2010,1,212490,247823,1.27,0.13,9.95,-0.03,-0.01,-0.00,32.05
27940170,2015,1,212561,248062,1.28,0.14,9.95,-0.03,-0.01,-0.00,32.05
27980170,2011,1,212625,248185,1.28,0.14,9.91,-0.03,-0.01,-0.00,32.05
28020170,1991,1,212330,246552,1.26,0.16,9.93,-0.03,-0.01,-0.00,32.05
28060221,1989,1,211769,245281,1.28,0.14,9.95,-0.03,-0.01,-0.00,32.05
28100170,2003,1,211517,245028,1.29,0.15,9.90,-0.03,-0.01,-0.00,32.05
28140169,2014,1,211437,245208,1.30,0.16,9.92,-0.03,-0.01,-0.00,32.05
28180169,2007,1,211456,245379,1.29,0.14,9.89,-0.03,-0.01,-0.00,32.05
28220169,2000,1,211617,245805,1.28,0.14,9.93,-0.03,-0.01,-0.00,32.05
28260199,2008,1,211777,246395,1.29,0.15,9.93,-0.03,-0.01,-0.00,32.05
28300169,1995,1,211900,246552,1.27,0.14,9.93,-0.03,-0.01,-0.00,32.05
28340169,2000,1,211982,246555,1.30,0.14,9.93,-0.03,-0.01,-0.00,32.05
28380169,2013,1,211984,246859,1.26,0.14,9.92,-0.03,-0.01,-0.00,32.05
28420170,2019,1,212095,247182,1.27,0.15,9.92,-0.03,-0.01,-0.00,32.05
28460169,2021,1,212213,247530,1.29,0.15,9.93,-0.03,-0.01,-0.00,32.05
28500169,1983,1,212351,247921,1.28,0.13,9.93,-0.03,-0.01,-0.00,32.05
28540169,2010,1,212456,248295,1.29,0.13,9.92,-0.03,-0.01,-0.00,32.05
28580170,2002,1,212627,248626,1.28,0.16,9.94,-0.03,-0.01,-0.00,32.05
28620169,2001,1,212771,248973,1.29,0.15,9.91,-0.03,-0.01,-0.00,32.05
28660856,1991,1,212825,249335,1.28,0.14,9.93,-0.03,-0.01,-0.00,32.11
28701169,2000,1,212825,248620,1.29,0.13,9.92,-0.03,-0.01,-0.00,32.11
28741170,1993,1,212241,246566,1.28,0.15,9.92,-0.03,-0.01,-0.00,32.11
28779169,2095,1,211658,245694,1.29,0.14,9.91,-0.03,-0.01,-0.00,32.11
28819170,2065,1,211555,245663,1.27,0.15,9.92,-0.03,-0.01,-0.01,32.11
28859169,2091,1,211572,245759,1.26,0.14,9.92,-0.03,-0.01,-0.00,32.11
28899169,2096,1,211648,245952,1.27,0.16,9.94,-0.03,-0.01,-0.00,32.11
28939169,2081,1,211663,246254,1.27,0.13,9.94,-0.03,-0.01,-0.00,32.11
28979170,2096,1,211838,246323,1.27,0.14,9.92,-0.03,-0.01,-0.00,32.11
29019169,2091,1,211789,246168,1.28,0.15,9.92,-0.04,-0.01,-0.00,32.11
29059170,2094,1,211732,246151,1.29,0.14,9.90,-0.03,-0.01,-0.00,32.11
29099170,2113,1,211782,246280,1.28,0.14,9.91,-0.03,-0.01,-0.00,32.11
29139170,2065,1,211885,246590,1.26,0.14,9.92,-0.03,-0.01,-0.00,32.11
29179170,2045,1,211896,246798,1.26,0.15,9.92,-0.03,-0.01,-0.00,32.11
29219170,2032,1,212031,247112,1.28,0.14,9.90,-0.03,-0.01,-0.00,32.11
29259169,2065,1,212098,247399,1.29,0.12,9.91,-0.03,-0.01,-0.00,32.11
29299170,2044,1,212277,247608,1.27,0.14,9.92,-0.03,-0.01,-0.00,32.11
29339169,2039,1,212358,247745,1.29,0.15,9.93,-0.03,-0.01,-0.00,32.11
29379170,2045,1,212134,246346,1.27,0.14,9.92,-0.03,-0.01,-0.00,32.11
29419169,2073,1,211366,244932,1.28,0.15,9.94,-0.03,-0.01,-0.00,32.11
29459170,2053,1,211046,244540,1.28,0.15,9.92,-0.03,-0.01,-0.00,32.11
29499170,2047,1,211167,244776,1.27,0.15,9.93,-0.03,-0.01,-0.00,32.11
29539170,2037,1,211181,244906,1.28,0.16,9.92,-0.03,-0.01,-0.00,32.11
29579170,2058,1,211251,245259,1.28,0.15,9.92,-0.03,-0.01,-0.00,32.11
29619170,2057,1,211459,245641,1.28,0.13,9.90,-0.03,-0.01,-0.00,32.11
29659170,2067,1,211512,245724,1.28,0.15,9.92,-0.03,-0.01,-0.00,32.11
29699859,2015,1,211457,245724,1.28,0.15,9.92,-0.03,-0.01,-0.00,31.71
29740170,2000,1,211481,245859,1.28,0.17,9.91,-0.03,-0.01,-0.00,31.71
29780170,2000,1,211552,246163,1.28,0.14,9.92,-0.03,-0.01,-0.00,31.71
29820169,1987,1,211691,246552,1.27,0.15,9.92,-0.03,-0.01,-0.00,31.71
29860170,1995,1,211811,246985,1.29,0.16,9.93,-0.03,-0.01,-0.00,31.71
29900209,1983,1,211919,247361,1.28,0.16,9.93,-0.03,-0.01,-0.00,31.71
29940170,1979,1,212011,247675,1.28,0.15,9.92,-0.03,-0.01,-0.00,31.71
29980170,1994,1,212043,247945,1.30,0.14,9.92,-0.03,-0.01,-0.01,31.71
30020170,2007,1,212181,248118,1.28,0.14,9.90,-0.03,-0.01,-0.00,31.71
30060169,1993,1,212070,246589,1.29,0.16,9.92,-0.03,-0.01,-0.00,31.71
30100188,2000,1,211372,245056,1.28,0.16,9.92,-0.03,-0.01,-0.00,31.71
30140170,1989,1,210966,244512,1.27,0.14,9.93,-0.03,-0.01,-0.00,31.71
30180170,1983,1,210850,244433,1.27,0.15,9.92,-0.03,-0.01,-0.00,31.71
30220169,2000,1,210929,244541,1.31,0.15,9.96,-0.03,-0.01,-0.00,31.71
30260170,2015,1,210949,244844,1.30,0.16,9.91,-0.03,-0.01,-0.00,31.71
30300169,1995,1,211095,245233,1.29,0.14,9.94,-0.03,-0.01,-0.00,31.71
30340170,2014,1,211171,245335,1.27,0.14,9.90,-0.03,-0.01,-0.00,31.71
30380170,2010,1,211201,245287,1.28,0.15,9.91,-0.03,-0.01,-0.00,31.71
30420169,2003,1,211205,245434,1.29,0.14,9.92,-0.03,-0.01,-0.00,31.71
30460169,1997,1,211230,245586,1.27,0.14,9.90,-0.03,-0.01,-0.00,31.71
30500170,1984,1,211447,245887,1.28,0.15,9.93,-0.03,-0.01,-0.01,31.71
30540169,2015,1,211550,246238,1.27,0.16,9.93,-0.03,-0.01,-0.00,31.71
30580170,2015,1,211704,246547,1.28,0.15,9.94,-0.03,-0.01,-0.00,31.71
30620169,2001,1,211750,246657,1.27,0.15,9.95,-0.03,-0.01,-0.00,31.71
30660170,1984,1,211884,247028,1.29,0.14,9.91,-0.03,-0.01,-0.00,31.71
30700856,1999,1,211873,247138,1.27,0.16,9.92,-0.03,-0.01,-0.00,31.89
30739170,2025,1,212028,247478,1.27,0.15,9.93,-0.03,-0.01,-0.00,31.89
30779169,2035,1,211908,246180,1.30,0.14,9.89,-0.03,-0.01,-0.01,31.89
30819170,2031,1,211218,244496,1.28,0.15,9.94,-0.03,-0.01,-0.00,31.89
30859170,2035,1,210745,243887,1.27,0.14,9.92,-0.03,-0.01,-0.00,31.89
30899170,2030,1,210633,243855,1.29,0.16,9.94,-0.03,-0.01,-0.00,31.89
30939170,2027,1,210703,244003,1.29,0.15,9.90,-0.03,-0.01,-0.00,31.89
30979169,2018,1,210788,244158,1.29,0.14,9.93,-0.03,-0.01,-0.00,31.89
31019169,2025,1,210878,244604,1.27,0.15,9.94,-0.03,-0.01,-0.00,31.89
31059170,2032,1,211011,244890,1.30,0.15,9.91,-0.03,-0.01,-0.00,31.89
31099170,2011,1,210925,244776,1.28,0.16,9.92,-0.03,-0.01,-0.00,31.89
31139169,1984,1,211012,245020,1.30,0.14,9.91,-0.03,-0.01,-0.00,31.89
31179169,1982,1,211030,245213,1.27,0.14,9.94,-0.03,-0.01,-0.00,31.89
31219170,2002,1,211116,245651,1.28,0.15,9.91,-0.03,-0.01,-0.00,31.89
31259169,1994,1,211354,246084,1.30,0.14,9.88,-0.03,-0.01,-0.00,31.89
31299170,1990,1,211544,246466,1.30,0.14,9.90,-0.03,-0.01,-0.00,31.89
31339170,2007,1,211579,246817,1.28,0.16,9.92,-0.03,-0.01,-0.00,31.89
31379170,2001,1,211714,247029,1.29,0.15,9.92,-0.03,-0.01,-0.00,31.89
31419169,2002,1,211869,247452,1.27,0.14,9.92,-0.03,-0.01,-0.00,31.89
31459170,2014,1,211949,247777,1.27,0.15,9.91,-0.03,-0.01,-0.00,31.89
31499169,2021,1,212175,248204,1.27,0.16,9.90,-0.03,-0.01,-0.00,31.89
31539187,2015,1,212114,246962,1.30,0.14,9.93,-0.03,-0.01,-0.00,31.89
31579170,2038,1,211226,244923,1.29,0.15,9.93,-0.03,-0.01,-0.00,31.89
31619170,2057,1,210930,244497,1.28,0.14,9.92,-0.03,-0.01,-0.00,31.89
31659169,2031,1,210829,244587,1.29,0.14,9.92,-0.03,-0.01,-0.00,31.89
31699170,2032,1,211004,244845,1.29,0.15,9.92,-0.03,-0.01,-0.00,31.89
31739876,1997,1,211063,245250,1.28,0.16,9.93,-0.03,-0.01,-0.00,31.89
31778170,2066,1,211215,245851,1.30,0.15,9.92,-0.03,-0.01,-0.00,31.89
31818170,2091,1,211328,246062,1.30,0.14,9.93,-0.03,-0.01,-0.00,31.89
31858170,2078,1,211512,246077,1.29,0.14,9.92,-0.03,-0.01,-0.00,31.89
31898169,2094,1,211452,246046,1.28,0.15,9.90,-0.03,-0.01,-0.01,31.89
31938170,2097,1,211634,246384,1.28,0.14,9.93,-0.03,-0.01,-0.00,31.89
31978169,2096,1,211780,246731,1.28,0.15,9.91,-0.03,-0.01,-0.00,31.89
32018170,2062,1,211905,247130,1.29,0.16,9.92,-0.03,-0.01,-0.00,31.89
32058170,2065,1,212040,247569,1.27,0.14,9.90,-0.03,-0.01,-0.00,31.89
32098170,2073,1,212205,247915,1.28,0.15,9.90,-0.03,-0.01,-0.00,31.89
32138169,2064,1,212156,248068,1.26,0.14,9.91,-0.03,-0.01,-0.00,31.89
32178170,2066,1,212362,248526,1.28,0.14,9.94,-0.03,-0.01,-0.00,31.89
32218169,2067,1,212389,248676,1.27,0.15,9.92,-0.03,-0.01,-0.00,31.89
32258170,2079,1,212354,247292,1.26,0.13,9.90,-0.03,-0.01,-0.00,31.89
32298169,2075,1,211440,245226,1.28,0.15,9.94,-0.03,-0.01,-0.00,31.89
32338170,2091,1,211062,244821,1.27,0.13,9.93,-0.03,-0.01,-0.00,31.89
32378169,2047,1,211008,244956,1.27,0.13,9.92,-0.03,-0.01,-0.00,31.89
32418170,2081,1,211094,245233,1.28,0.12,9.94,-0.03,-0.01,-0.00,31.89
32458169,2064,1,211098,245479,1.28,0.14,9.90,-0.03,-0.01,-0.00,31.89
32498170,2075,1,211322,246022,1.28,0.14,9.91,-0.03,-0.01,-0.00,31.89
32538169,2064,1,211432,246100,1.26,0.16,9.91,-0.03,-0.01,-0.00,31.89
32578170,2058,1,211300,245801,1.26,0.15,9.91,-0.03,-0.01,-0.00,31.89
32618169,2063,1,211319,246039,1.27,0.13,9.94,-0.03,-0.01,-0.00,31.89
32658170,2064,1,211316,246282,1.26,0.15,9.91,-0.03,-0.01,-0.00,31.89
32698169,2060,1,211514,246730,1.28,0.14,9.91,-0.03,-0.01,-0.00,31.89
32738170,2059,1,211694,247166,1.28,0.16,9.92,-0.03,-0.01,-0.00,31.89
32778856,1995,1,211852,247532,1.27,0.15,9.91,-0.03,-0.01,-0.00,31.85
32819170,2010,1,211912,247767,1.26,0.16,9.90,-0.03,-0.01,-0.00,31.85
32859169,1987,1,212029,248024,1.27,0.13,9.93,-0.03,-0.01,-0.00,31.85
32899170,2023,1,212195,248243,1.28,0.17,9.92,-0.03,-0.01,-0.01,31.85
32939169,2022,1,212100,246821,1.30,0.15,9.90,-0.03,-0.01,-0.00,31.85
32979167,2030,1,211189,244863,1.27,0.15,9.94,-0.03,-0.01,-0.00,31.85
33019169,2000,1,210785,244374,1.27,0.16,9.90,-0.03,-0.01,-0.00,31.85
33059170,1999,1,210762,244555,1.27,0.15,9.92,-0.03,-0.01,-0.00,31.85
33099169,2015,1,210825,244666,1.29,0.14,9.95,-0.03,-0.01,-0.00,31.85
33139170,2005,1,210992,245114,1.28,0.15,9.92,-0.03,-0.01,-0.00,31.85
33179191,1973,1,211052,245483,1.30,0.14,9.91,-0.03,-0.01,-0.00,31.85
33219170,2009,1,211228,245666,1.28,0.15,9.90,-0.03,-0.01,-0.00,31.85
33259170,2000,1,211256,245617,1.30,0.14,9.94,-0.03,-0.01,-0.00,31.85
33299170,2011,1,211178,245625,1.28,0.15,9.91,-0.03,-0.01,-0.01,31.85
33339169,2005,1,211221,245886,1.28,0.15,9.91,-0.03,-0.01,-0.00,31.85
33379193,2002,1,211400,246357,1.27,0.15,9.96,-0.03,-0.01,-0.00,31.85
33419169,2014,1,211620,246829,1.29,0.17,9.90,-0.03,-0.01,-0.00,31.85
33459170,1981,1,211816,247208,1.28,0.15,9.92,-0.03,-0.01,-0.00,31.85
33499169,2001,1,211977,247464,1.29,0.13,9.96,-0.03,-0.01,-0.00,31.85
33539170,1994,1,211961,247642,1.31,0.15,9.91,-0.03,-0.01,-0.00,31.85
33579169,2036,1,212018,247737,1.29,0.15,9.90,-0.03,-0.01,-0.00,31.85
33619170,2000,1,212065,247753,1.27,0.14,9.94,-0.03,-0.01,-0.00,31.85
33659169,2013,1,211778,245682,1.26,0.15,9.92,-0.03,-0.01,-0.00,31.85
33699170,1996,1,210847,244040,1.28,0.14,9.92,-0.03,-0.01,-0.00,31.85
33739170,1999,1,210614,243892,1.30,0.15,9.90,-0.03,-0.01,-0.00,31.85
33779856,1970,1,210554,243987,1.26,0.13,9.96,-0.03,-0.01,-0.00,31.89
33818169,2025,1,210672,244121,1.29,0.15,9.92,-0.03,-0.01,-0.00,31.89
33858169,2005,1,210670,244378,1.29,0.15,9.91,-0.03,-0.01,-0.00,31.89
33898169,2017,1,210832,244784,1.28,0.15,9.91,-0.03,-0.01,-0.00,31.89
33938170,2002,1,210943,244973,1.29,0.15,9.92,-0.03,-0.01,-0.00,31.89
33978169,2026,1,210907,244890,1.28,0.14,9.91,-0.03,-0.01,-0.00,31.89
34018170,2032,1,210972,244967,1.28,0.15,9.95,-0.03,-0.01,-0.00,31.89
34058169,2015,1,210910,245215,1.27,0.15,9.94,-0.03,-0.01,-0.00,31.89
34098169,2022,1,211048,245730,1.27,0.14,9.91,-0.03,-0.01,-0.00,31.89
34138169,2017,1,211173,246007,1.28,0.13,9.93,-0.03,-0.01,-0.00,31.89
34178169,2030,1,211325,246346,1.26,0.17,9.92,-0.03,-0.01,-0.00,31.89
34218169,2032,1,211551,246676,1.28,0.14,9.94,-0.03,-0.01,-0.00,31.89
34258170,2012,1,211573,246919,1.30,0.16,9.91,-0.03,-0.01,-0.00,31.89
34298170,2037,1,211631,247274,1.29,0.15,9.95,-0.03,-0.01,-0.00,31.89
34338169,2000,1,211801,246869,1.27,0.12,9.94,-0.03,-0.01,-0.00,31.89
34378169,2012,1,211139,244783,1.27,0.15,9.92,-0.03,-0.01,-0.00,31.89
34418169,2004,1,210524,243875,1.27,0.15,9.92,-0.03,-0.01,-0.00,31.89
34458169,2002,1,210335,243671,1.28,0.14,9.91,-0.03,-0.01,-0.00,31.89
34498170,2025,1,210467,243846,1.27,0.14,9.91,-0.03,-0.01,-0.00,31.89
34538169,2017,1,210507,244060,1.29,0.15,9.96,-0.03,-0.01,-0.00,31.89
34578170,2031,1,210587,244388,1.28,0.16,9.91,-0.03,-0.01,-0.00,31.89
34618169,2007,1,210746,244667,1.29,0.15,9.92,-0.03,-0.01,-0.00,31.89
34658169,2018,1,210823,244796,1.28,0.15,9.93,-0.03,-0.01,-0.00,31.89
34698169,2003,1,210880,244891,1.26,0.15,9.91,-0.03,-0.01,-0.00,31.89
34738170,2000,1,210906,245198,1.28,0.15,9.93,-0.03,-0.01,-0.00,31.89
34778169,2057,1,211050,245631,1.29,0.13,9.93,-0.03,-0.01,-0.00,31.89
34818907,1996,1,211216,246129,1.29,0.14,9.93,-0.03,-0.01,-0.00,31.91
34857169,2064,1,211301,246370,1.27,0.14,9.90,-0.03,-0.01,-0.00,31.91
34897169,2061,1,211544,246685,1.27,0.14,9.89,-0.03,-0.01,-0.00,31.91
34937169,2059,1,211703,247080,1.27,0.15,9.94,-0.03,-0.01,-0.00,31.91
34977170,2061,1,211860,247425,1.27,0.15,9.91,-0.03,-0.01,-0.00,31.91
35017187,2033,1,211938,247458,1.26,0.16,9.92,-0.03,-0.01,-0.00,31.91
35057170,2065,1,211706,245476,1.27,0.15,9.90,-0.03,-0.01,-0.00,31.91
35097170,2084,1,210850,244002,1.28,0.16,9.91,-0.03,-0.01,-0.00,31.91
35137170,2085,1,210517,243792,1.28,0.17,9.91,-0.03,-0.01,-0.00,31.91
35177170,2064,1,210551,244088,1.28,0.13,9.92,-0.03,-0.01,-0.00,31.91
35217170,2065,1,210706,244382,1.27,0.13,9.92,-0.03,-0.01,-0.01,31.91
35257169,2083,1,210760,244827,1.26,0.13,9.92,-0.03,-0.01,-0.00,31.91
35297169,2065,1,210946,245268,1.28,0.15,9.92,-0.03,-0.01,-0.00,31.91
35337170,2083,1,211115,245249,1.27,0.14,9.93,-0.03,-0.01,-0.00,31.91
35377169,2077,1,211123,245274,1.27,0.14,9.90,-0.03,-0.01,-0.00,31.91
35417169,2097,1,211091,245376,1.27,0.16,9.92,-0.03,-0.01,-0.00,31.91
35457170,2074,1,211182,245712,1.25,0.15,9.92,-0.03,-0.01,-0.00,31.91
35497170,2091,1,211323,245956,1.29,0.15,9.91,-0.03,-0.01,-0.00,31.91
35537170,2073,1,211262,246199,1.27,0.15,9.92,-0.03,-0.01,-0.01,31.91
35577169,2039,1,211385,246437,1.27,0.14,9.93,-0.03,-0.01,-0.00,31.91
35617170,2031,1,211391,246750,1.27,0.14,9.91,-0.03,-0.01,-0.00,31.91
35657169,2041,1,211552,246956,1.27,0.15,9.92,-0.03,-0.01,-0.00,31.91
35697170,2037,1,211531,246203,1.28,0.16,9.93,-0.03,-0.01,-0.00,31.91
35737169,2023,1,210857,244331,1.27,0.18,9.94,-0.03,-0.01,-0.00,31.91
35777169,2064,1,210346,243376,1.28,0.14,9.95,-0.03,-0.01,-0.00,31.91
35817169,2039,1,210224,243340,1.29,0.14,9.92,-0.03,-0.01,-0.00,31.91
35857856,2003,1,210218,243628,1.27,0.17,9.94,-0.03,-0.01,-0.00,31.89
35898169,2016,1,210415,243870,1.28,0.15,9.90,-0.03,-0.01,-0.00,31.89
35938170,2039,1,210523,244257,1.28,0.16,9.94,-0.03,-0.01,-0.00,31.89
35978169,2028,1,210573,244439,1.27,0.13,9.91,-0.03,-0.01,-0.00,31.89
36018169,2030,1,210593,244363,1.27,0.14,9.94,-0.03,-0.01,-0.00,31.89
36058169,2027,1,210618,244583,1.28,0.17,9.91,-0.03,-0.01,-0.00,31.89
36098170,2013,1,210805,244924,1.27,0.15,9.91,-0.04,-0.00,-0.00,31.89
36138169,2018,1,210894,245330,1.27,0.15,9.96,-0.03,-0.01,-0.00,31.89
36178170,2000,1,211041,245669,1.27,0.14,9.92,-0.03,-0.01,-0.00,31.89
36218169,2003,1,211168,245974,1.28,0.15,9.91,-0.03,-0.01,-0.00,31.89
36258170,1980,1,211327,246216,1.27,0.15,9.93,-0.03,-0.01,-0.00,31.89
36298169,2001,1,211340,246375,1.28,0.16,9.92,-0.03,-0.01,-0.00,31.89
36338170,1994,1,211404,246506,1.28,0.14,9.94,-0.03,-0.01,-0.00,31.89
36378169,2005,1,211178,244752,1.27,0.16,9.92,-0.03,-0.01,-0.00,31.89
36418170,2000,1,210439,243197,1.27,0.17,9.92,-0.03,-0.01,-0.00,31.89
36458175,2017,1,210021,242608,1.26,0.14,9.92,-0.03,-0.01,-0.00,31.89
36498169,2035,1,209970,242680,1.27,0.15,9.90,-0.03,-0.01,-0.00,31.89
36538169,1990,1,210071,242773,1.27,0.14,9.94,-0.03,-0.01,-0.00,31.89
36578170,1999,1,210156,243025,1.26,0.14,9.91,-0.03,-0.01,-0.00,31.89
36618169,2027,1,210251,243262,1.27,0.15,9.91,-0.03,-0.01,-0.00,31.89
36658191,2032,1,210295,243420,1.28,0.15,9.92,-0.03,-0.01,-0.00,31.89
36698169,2041,1,210240,243563,1.28,0.14,9.91,-0.03,-0.01,-0.01,31.89
36738170,2015,1,210389,243741,1.28,0.15,9.92,-0.03,-0.01,-0.00,31.89
36778169,2037,1,210430,244017,1.27,0.15,9.91,-0.03,-0.01,-0.00,31.89
36818170,2053,1,210573,244356,1.27,0.16,9.94,-0.03,-0.01,-0.00,31.89
36858880,2000,1,210707,244560,1.29,0.15,9.95,-0.03,-0.01,-0.00,31.97
36897170,2035,1,210725,244905,1.31,0.16,9.91,-0.03,-0.01,-0.01,31.97
36937170,1991,1,210939,245246,1.28,0.15,9.92,-0.03,-0.01,-0.00,31.97
36977170,2033,1,211025,245407,1.28,0.15,9.92,-0.03,-0.01,-0.00,31.97
37017169,2026,1,211071,245017,1.27,0.14,9.95,-0.03,-0.01,-0.00,31.97
37057170,2019,1,210483,243308,1.28,0.16,9.94,-0.03,-0.01,-0.00,31.97
37097169,2033,1,209922,242096,1.28,0.16,9.91,-0.03,-0.01,-0.00,31.97
37137170,2033,1,209625,241853,1.28,0.13,9.91,-0.03,-0.01,-0.01,31.97
37177169,2028,1,209592,242024,1.27,0.13,9.92,-0.03,-0.01,-0.01,31.97
37217170,2030,1,209682,242099,1.28,0.15,9.93,-0.03,-0.01,-0.00,31.97
37257169,2011,1,209738,242506,1.28,0.15,9.94,-0.03,-0.01,-0.01,31.97
37298170,2007,1,209824,242916,1.29,0.14,9.92,-0.03,-0.01,-0.00,31.97
37338169,2025,1,209996,242934,1.26,0.15,9.92,-0.03,-0.01,-0.00,31.97
37378169,2017,1,209972,243004,1.27,0.15,9.93,-0.03,-0.01,-0.00,31.97
37418169,2006,1,210065,243255,1.28,0.15,9.91,-0.03,-0.01,-0.01,31.97
37458170,2017,1,210087,243683,1.27,0.14,9.91,-0.03,-0.01,-0.00,31.97
37498169,2012,1,210347,244150,1.27,0.14,9.91,-0.03,-0.01,-0.00,31.97
37538170,2014,1,210490,244663,1.27,0.17,9.91,-0.03,-0.01,-0.00,31.97
37578169,2005,1,210808,245029,1.25,0.16,9.93,-0.03,-0.01,-0.00,31.97
37618170,2004,1,210878,245421,1.29,0.14,9.93,-0.03,-0.01,-0.00,31.97
37658169,1991,1,211008,245704,1.26,0.16,9.95,-0.03,-0.01,-0.00,31.97
37698169,2000,1,211194,245689,1.27,0.14,9.92,-0.03,-0.01,-0.00,31.97
37736169,2094,1,210761,243981,1.27,0.14,9.91,-0.03,-0.01,-0.00,31.97
37776169,2087,1,210175,242714,1.27,0.15,9.92,-0.03,-0.01,-0.00,31.97
37816169,2093,1,209948,242582,1.27,0.15,9.91,-0.03,-0.01,-0.00,31.97
37856170,2101,1,209934,242743,1.28,0.15,9.91,-0.03,-0.01,-0.00,31.97
37896856,2026,1,210128,242818,1.28,0.14,9.92,-0.03,-0.01,-0.00,31.97
37937169,2045,1,210175,243221,1.26,0.15,9.91,-0.03,-0.01,-0.00,31.97
37977169,2022,1,210309,243519,1.27,0.15,9.91,-0.03,-0.01,-0.00,31.97
38017169,2023,1,210448,243539,1.28,0.15,9.91,-0.03,-0.01,-0.00,31.97
38057169,2031,1,210483,243472,1.30,0.15,9.91,-0.03,-0.01,-0.00,31.97
38097184,2024,1,210531,243729,1.29,0.14,9.92,-0.03,-0.01,-0.00,31.97
38137169,2032,1,210607,244025,1.27,0.16,9.92,-0.03,-0.01,-0.00,31.97
38177170,1988,1,210738,244514,1.29,0.15,9.94,-0.03,-0.02,-0.00,31.97
38217169,2010,1,210875,244783,1.28,0.17,9.89,-0.03,-0.01,-0.00,31.97
38257170,2010,1,210945,245005,1.27,0.14,9.93,-0.03,-0.01,-0.00,31.97
38298169,2021,1,211023,245203,1.27,0.14,9.91,-0.03,-0.01,-0.00,31.97
38336170,2071,1,211019,245432,1.30,0.15,9.96,-0.03,-0.01,-0.00,31.97
38376169,2065,1,211070,244904,1.29,0.15,9.91,-0.03,-0.01,-0.00,31.97
38416170,2037,1,210572,243228,1.28,0.14,9.92,-0.03,-0.00,-0.00,31.97
38456169,2064,1,210038,242286,1.27,0.15,9.91,-0.03,-0.01,-0.00,31.97
38496181,2036,1,209899,242262,1.26,0.17,9.93,-0.03,-0.01,-0.00,31.97
38536169,2047,1,209965,242303,1.29,0.16,9.92,-0.03,-0.01,-0.01,31.97
38576169,2059,1,209989,242555,1.25,0.13,9.94,-0.03,-0.01,-0.00,31.97
38616169,2069,1,210146,242953,1.28,0.15,9.92,-0.03,-0.01,-0.00,31.97
38656170,2078,1,210244,243160,1.26,0.17,9.92,-0.03,-0.01,-0.00,31.97
38696169,2074,1,210243,243108,1.28,0.16,9.94,-0.03,-0.01,-0.00,31.97
38736170,2057,1,210167,243198,1.29,0.16,9.92,-0.03,-0.01,-0.00,31.97
38776169,2047,1,210204,243453,1.28,0.14,9.93,-0.03,-0.01,-0.00,31.97
38816170,2032,1,210253,243689,1.28,0.15,9.92,-0.03,-0.01,-0.00,31.97
38856169,2063,1,210331,243897,1.28,0.14,9.91,-0.03,-0.01,-0.00,31.97
38896169,2042,1,210416,244150,1.26,0.14,9.91,-0.03,-0.01,-0.00,31.97
38936856,1987,1,210572,244489,1.28,0.15,9.90,-0.03,-0.01,-0.00,32.09
38977169,1995,1,210787,244831,1.26,0.15,9.89,-0.03,-0.00,-0.00,32.09
39017169,2023,1,210946,245056,1.26,0.16,9.91,-0.03,-0.00,-0.01,32.09
39057169,1996,1,210685,243733,1.27,0.14,9.92,-0.03,-0.01,-0.00,32.09
39097169,2025,1,210087,242069,1.24,0.15,9.95,-0.03,-0.02,-0.00,32.09
39137169,2009,1,209572,241499,1.27,0.15,9.92,-0.03,-0.02,-0.00,32.09
39177169,2034,1,209545,241409,1.27,0.15,9.92,-0.03,-0.02,-0.00,32.09
39217169,2027,1,209508,241461,1.29,0.16,9.95,-0.03,-0.02,-0.00,32.09
39257169,2043,1,209592,241736,1.28,0.15,9.91,-0.03,-0.02,-0.00,32.09
39297170,2053,1,209714,242074,1.28,0.14,9.91,-0.03,-0.02,-0.00,32.09
39336169,2096,1,209781,242184,1.26,0.16,9.92,-0.03,-0.01,-0.00,32.09
39376170,2090,1,209757,242196,1.28,0.14,9.90,-0.03,-0.01,-0.00,32.09
39416169,2075,1,209823,242493,1.27,0.15,9.92,-0.03,-0.00,-0.00,32.09
39456170,2064,1,209981,242956,1.27,0.14,9.92,-0.03,-0.01,-0.00,32.09
39496169,2045,1,210211,243483,1.27,0.15,9.91,-0.03,-0.01,-0.00,32.09
39536169,2053,1,210384,243824,1.27,0.17,9.89,-0.03,-0.01,-0.00,32.09
39576169,2035,1,210473,244009,1.27,0.13,9.90,-0.03,-0.01,-0.00,32.09
39616169,2032,1,210488,244066,1.28,0.14,9.91,-0.03,-0.01,-0.00,32.09
39656169,2043,1,210511,244080,1.26,0.17,9.92,-0.03,-0.01,-0.00,32.09
39696169,2033,1,210558,244249,1.29,0.14,9.91,-0.03,-0.01,-0.00,32.09
39736169,2021,1,210725,244109,1.25,0.15,9.91,-0.03,-0.01,-0.00,32.09
39776170,2033,1,210392,242472,1.28,0.17,9.91,-0.03,-0.01,-0.00,32.09
39816169,2055,1,209760,241187,1.27,0.16,9.95,-0.03,-0.01,-0.00,32.09
39856169,2026,1,209537,240918,1.27,0.17,9.93,-0.03,-0.01,-0.00,32.09
39896169,2045,1,209472,240788,1.24,0.15,9.92,-0.03,-0.01,-0.00,32.09
39936871,1999,1,209475,240876,1.26,0.15,9.92,-0.03,-0.01,-0.01,31.97
39977169,2006,1,209500,241202,1.26,0.14,9.94,-0.03,0.00,-0.01,31.97
40017160,2000,1,209640,241550,1.25,0.17,9.93,-0.03,0.00,-0.00,31.97
40057161,1984,1,209634,241738,1.23,0.15,9.92,-0.03,0.00,-0.01,31.97
40097161,1827,1,209509,241805,1.24,0.15,9.90,-0.03,0.00,-0.01,31.97
40137173,1691,1,209486,241811,1.25,0.13,9.93,-0.03,-0.00,-0.01,31.97
40177169,1698,1,209659,241612,1.22,0.17,9.92,-0.03,-0.01,-0.00,31.97
40217169,1797,1,209636,241478,1.21,0.14,9.93,-0.03,-0.01,-0.00,31.97
40257170,1835,1,209536,241611,1.24,0.16,9.94,-0.03,-0.01,-0.00,31.97
40297169,1936,1,209719,241699,1.23,0.15,9.92,-0.03,-0.01,-0.00,31.97
40337170,1949,1,209816,242053,1.24,0.16,9.92,-0.03,-0.01,-0.00,31.97
40376169,2022,1,209910,242218,1.24,0.15,9.94,-0.03,-0.01,-0.00,31.97
40416170,2023,1,209997,242697,1.24,0.17,9.95,-0.03,-0.01,-0.00,31.97
40456169,2091,1,210291,243075,1.25,0.17,9.90,-0.03,-0.01,-0.00,31.97
40496170,2112,1,210368,242824,1.24,0.15,9.94,-0.04,-0.01,-0.00,31.97
40536170,2157,1,209969,241260,1.24,0.15,9.94,-0.04,-0.01,-0.01,31.97
40576170,2143,1,209521,240275,1.23,0.16,9.94,-0.03,-0.01,-0.01,31.97
40616169,2170,1,209419,240343,1.22,0.14,9.94,-0.03,-0.01,-0.00,31.97
40656170,2159,1,209467,240482,1.25,0.17,9.93,-0.03,-0.02,-0.00,31.97
40696169,2160,1,209438,240464,1.27,0.16,9.92,-0.03,-0.01,-0.00,31.97
40736169,2161,1,209528,240660,1.23,0.16,9.90,-0.03,-0.01,-0.00,31.97
40776169,2122,1,209703,241011,1.26,0.15,9.95,-0.03,-0.02,-0.00,31.97
40816169,2176,1,209741,241108,1.24,0.14,9.92,-0.03,-0.01,-0.00,31.97
40856169,2192,1,209837,241224,1.25,0.15,9.92,-0.03,-0.02,-0.00,31.97
40896170,2193,1,209954,241488,1.24,0.17,9.94,-0.03,-0.01,-0.00,31.97
40936856,2171,1,210002,241868,1.24,0.16,9.91,-0.03,-0.01,-0.00,32.05
40977169,2158,1,210139,242295,1.24,0.15,9.90,-0.03,-0.00,-0.01,32.05
41017169,2083,1,210222,242536,1.25,0.16,9.91,-0.03,-0.00,-0.01,32.05
41057169,2085,1,210314,242608,1.24,0.15,9.95,-0.03,-0.01,-0.00,32.05
41095169,2135,1,210387,242538,1.24,0.15,9.91,-0.03,-0.01,-0.00,32.05
41135169,2154,1,210325,242510,1.23,0.15,9.91,-0.03,-0.01,-0.00,32.05
41175169,2109,1,210323,242210,1.24,0.14,9.92,-0.03,-0.01,-0.00,32.05
41215170,2103,1,209966,240471,1.21,0.17,9.93,-0.03,-0.01,-0.00,32.05
41255169,2112,1,209148,238551,1.22,0.17,9.94,-0.03,-0.01,-0.00,32.05
41295169,2093,1,208792,238511,1.25,0.16,9.94,-0.03,-0.01,-0.00,32.05
41335169,2081,1,209098,239143,1.24,0.15,9.91,-0.03,-0.01,-0.00,32.05
41376169,2011,1,209370,239845,1.24,0.15,9.91,-0.03,-0.01,-0.00,32.05
41416169,2025,1,209770,240589,1.23,0.16,9.95,-0.04,-0.01,-0.00,32.05
41456169,1991,1,210090,241102,1.26,0.15,9.93,-0.03,-0.02,-0.00,32.05
41496169,2026,1,210155,241191,1.24,0.16,9.92,-0.04,-0.03,-0.00,32.05
41536169,2107,1,210112,241123,1.25,0.15,9.89,-0.03,-0.03,-0.00,32.05
41576208,2179,1,210104,241323,1.26,0.16,9.92,-0.03,-0.03,-0.00,32.05
41616169,2199,1,210127,241641,1.25,0.15,9.93,-0.03,-0.02,-0.00,32.05
41656169,2206,1,210206,241924,1.27,0.15,9.92,-0.03,-0.02,-0.00,32.05
41696169,2192,1,210240,242187,1.29,0.16,9.93,-0.03,-0.02,-0.00,32.05
41736169,2175,1,210377,242439,1.27,0.15,9.92,-0.03,-0.01,-0.00,32.05
41776203,2153,1,210414,242708,1.28,0.17,9.93,-0.03,-0.01,-0.00,32.05
41816169,2155,1,210543,242994,1.25,0.14,9.90,-0.03,-0.01,-0.00,32.05
41856169,2103,1,210666,242996,1.26,0.15,9.94,-0.03,-0.01,-0.00,32.05
41896169,2075,1,210377,241559,1.28,0.16,9.92,-0.03,-0.01,-0.00,32.05
41936169,2078,1,209642,239944,1.29,0.14,9.90,-0.03,-0.01,-0.00,32.05
41976856,1989,1,209226,239358,1.27,0.16,9.93,-0.03,-0.01,-0.00,32.17
42015170,2032,1,209102,239287,1.28,0.16,9.95,-0.03,-0.01,-0.00,32.17
42055169,2015,1,209089,239315,1.28,0.15,9.93,-0.03,-0.01,-0.00,32.17
42095169,1997,1,209187,239575,1.25,0.16,9.92,-0.03,-0.01,-0.00,32.17
42135169,1959,1,209391,239982,1.28,0.16,9.92,-0.03,-0.01,-0.00,32.17
42175170,1971,1,209498,240197,1.27,0.17,9.94,-0.03,-0.01,-0.01,32.17
42215169,1941,1,209495,240177,1.26,0.12,9.92,-0.03,-0.01,-0.00,32.17
42255170,1965,1,209487,240461,1.28,0.16,9.93,-0.03,-0.01,-0.00,32.17
42295170,1975,1,209663,240966,1.25,0.13,9.94,-0.03,-0.01,-0.01,32.17
42335170,1948,1,209928,241480,1.25,0.16,9.92,-0.03,-0.01,-0.00,32.17
42375170,1970,1,210108,241862,1.28,0.15,9.91,-0.03,-0.01,-0.00,32.17
42416170,1946,1,210202,242140,1.27,0.13,9.92,-0.03,-0.01,-0.00,32.17
42456169,1947,1,210306,242368,1.27,0.15,9.92,-0.03,-0.01,-0.00,32.17
42496170,1927,1,210399,242704,1.24,0.16,9.92,-0.03,-0.01,-0.00,32.17
42536169,1968,1,210564,243146,1.28,0.15,9.93,-0.03,-0.01,-0.00,32.17
42576170,1973,1,210715,243311,1.25,0.15,9.95,-0.03,-0.01,-0.00,32.17
42616169,1955,1,210546,242017,1.26,0.16,9.91,-0.03,-0.01,-0.00,32.17
42656170,1963,1,209958,240575,1.26,0.15,9.94,-0.03,-0.01,-0.00,32.17
42696169,1984,1,209640,240088,1.27,0.13,9.95,-0.03,-0.01,-0.00,32.17
42736170,1977,1,209614,240100,1.25,0.13,9.94,-0.03,-0.01,-0.00,32.17
42776169,1966,1,209639,240048,1.27,0.15,9.93,-0.03,-0.01,-0.00,32.17
42816170,2001,1,209655,240385,1.29,0.14,9.90,-0.03,-0.01,-0.00,32.17
42856169,2011,1,209939,241000,1.25,0.15,9.91,-0.03,-0.01,-0.00,32.17
42896170,2005,1,210176,241369,1.26,0.13,9.93,-0.03,-0.01,-0.00,32.17
42936169,1987,1,210315,241638,1.26,0.16,9.91,-0.03,-0.01,-0.00,32.17
42976856,1982,1,210327,241913,1.28,0.14,9.93,-0.03,-0.01,-0.00,32.05
43015169,2035,1,210482,242376,1.25,0.17,9.92,-0.03,-0.01,-0.00,32.05
43055169,2063,1,210681,242866,1.27,0.15,9.90,-0.04,-0.01,-0.01,32.05
43095169,2045,1,210828,243253,1.26,0.16,9.92,-0.03,-0.01,-0.00,32.05
43135170,2054,1,211002,243689,1.26,0.15,9.91,-0.03,-0.01,-0.00,32.05
43175169,2069,1,211115,244067,1.29,0.17,9.91,-0.03,-0.01,-0.00,32.05
43215219,2064,1,211278,244402,1.27,0.16,9.91,-0.03,-0.01,-0.00,32.05
43255169,2047,1,211369,244705,1.26,0.15,9.93,-0.03,-0.01,-0.00,32.05
43295169,2025,1,211467,244955,1.26,0.16,9.92,-0.03,-0.01,-0.00,32.05
43335169,2047,1,211351,243838,1.27,0.16,9.92,-0.03,-0.01,-0.00,32.05
43375170,2056,1,210871,242542,1.24,0.15,9.94,-0.03,-0.01,-0.00,32.05
43415212,2036,1,210533,242141,1.25,0.14,9.93,-0.03,-0.01,-0.00,32.05
43455169,2053,1,210529,242184,1.28,0.16,9.93,-0.03,-0.01,-0.00,32.05
43495169,2076,1,210571,242360,1.26,0.15,9.91,-0.03,-0.01,-0.00,32.05
43535170,2069,1,210599,242726,1.24,0.16,9.92,-0.03,-0.01,-0.00,32.05
43575169,2065,1,210765,243163,1.27,0.14,9.95,-0.03,-0.01,-0.00,32.05
43615169,2094,1,210869,243356,1.25,0.14,9.92,-0.03,-0.01,-0.00,32.05
43655169,2098,1,210893,243427,1.26,0.15,9.93,-0.03,-0.01,-0.00,32.05
43695169,2078,1,210887,243583,1.24,0.15,9.93,-0.03,-0.01,-0.00,32.05
43735169,2083,1,210969,243801,1.27,0.16,9.91,-0.03,-0.01,-0.00,32.05
43775169,2064,1,211053,244015,1.25,0.15,9.93,-0.03,-0.01,-0.00,32.05
43815169,2079,1,211123,244333,1.25,0.18,9.90,-0.03,-0.01,-0.00,32.05
43855170,2055,1,211181,244587,1.25,0.14,9.94,-0.03,-0.01,-0.00,32.05
43895169,2055,1,211235,244877,1.25,0.15,9.93,-0.03,-0.01,-0.00,32.05
43935169,2035,1,211355,245076,1.28,0.14,9.94,-0.03,-0.01,-0.00,32.05
43975169,2032,1,211412,245222,1.25,0.15,9.91,-0.03,-0.01,-0.00,32.05
44015856,1986,1,211224,244379,1.26,0.15,9.90,-0.03,-0.01,-0.01,32.21
44056169,2000,1,210783,243227,1.26,0.13,9.95,-0.03,-0.01,-0.00,32.21
44096170,2038,1,210458,242698,1.25,0.15,9.91,-0.03,-0.01,-0.00,32.21
44136170,2015,1,210403,242723,1.26,0.16,9.92,-0.03,-0.01,-0.00,32.21
44176169,1986,1,210404,242814,1.27,0.16,9.93,-0.03,-0.01,-0.00,32.21
44216169,2003,1,210446,243054,1.25,0.15,9.91,-0.03,-0.01,-0.00,32.21
44256170,2000,1,210482,243291,1.28,0.16,9.91,-0.03,-0.01,-0.00,32.21
44296170,2016,1,210523,243406,1.26,0.15,9.93,-0.03,-0.01,-0.00,32.21
44336169,2030,1,210535,243445,1.25,0.15,9.92,-0.03,-0.01,-0.00,32.21
44376169,2026,1,210586,243576,1.27,0.15,9.94,-0.03,-0.01,-0.00,32.21
44416170,2027,1,210632,243814,1.25,0.16,9.94,-0.03,-0.01,-0.00,32.21
44454169,2107,1,210707,244034,1.25,0.16,9.92,-0.03,-0.01,-0.00,32.21
44494170,2097,1,210765,244272,1.27,0.13,9.91,-0.03,-0.01,-0.00,32.21
44534170,2087,1,210874,244474,1.26,0.14,9.92,-0.03,-0.01,-0.00,32.21
44574170,2081,1,210929,244751,1.25,0.15,9.91,-0.03,-0.01,-0.00,32.21
44614169,2089,1,211024,244979,1.24,0.16,9.91,-0.03,-0.01,-0.00,32.21
44654170,2094,1,211152,245271,1.24,0.16,9.93,-0.03,-0.01,-0.00,32.21
44694170,2086,1,211136,244573,1.24,0.15,9.95,-0.03,-0.01,-0.00,32.21
44734169,2093,1,210727,243297,1.26,0.14,9.94,-0.03,-0.01,-0.00,32.21
44774169,2091,1,210302,242526,1.27,0.14,9.95,-0.03,-0.01,-0.00,32.21
44814170,2080,1,210153,242364,1.26,0.15,9.90,-0.03,-0.01,-0.00,32.21
44854172,2098,1,210115,242386,1.26,0.14,9.93,-0.03,-0.02,-0.00,32.21
44894170,2092,1,210206,242681,1.27,0.15,9.90,-0.04,-0.01,-0.00,32.21
44934169,2064,1,210301,243030,1.27,0.14,9.92,-0.04,-0.01,-0.00,32.21
44974170,2082,1,210401,243382,1.27,0.17,9.92,-0.04,-0.01,-0.00,32.21
45014170,2080,1,210586,243732,1.28,0.16,9.90,-0.04,-0.00,-0.00,32.21
45054882,2001,1,210727,244000,1.27,0.15,9.93,-0.04,-0.00,-0.01,32.11
45095170,2030,1,210753,244145,1.25,0.13,9.93,-0.03,-0.01,-0.00,32.11
45135169,2027,1,210719,244220,1.26,0.15,9.93,-0.03,-0.02,-0.00,32.11
45175169,2032,1,210680,244307,1.30,0.15,9.91,-0.03,-0.02,-0.00,32.11
45215169,2001,1,210677,244514,1.29,0.16,9.91,-0.03,-0.01,-0.00,32.11
45255192,2011,1,210723,244720,1.28,0.13,9.91,-0.03,-0.01,-0.00,32.11
45295170,2017,1,210799,245011,1.27,0.17,9.95,-0.03,-0.01,-0.00,32.11
45335169,2032,1,210901,245231,1.25,0.16,9.91,-0.03,-0.01,-0.01,32.11
45375170,2039,1,211007,245318,1.28,0.15,9.90,-0.03,-0.01,-0.00,32.11
45415169,2041,1,210904,244452,1.28,0.14,9.92,-0.03,-0.01,-0.00,32.11
45455170,2029,1,210431,243309,1.28,0.16,9.91,-0.03,-0.00,-0.00,32.11
45495169,2038,1,210151,242760,1.27,0.15,9.93,-0.03,-0.00,-0.01,32.11
45535169,2032,1,210040,242675,1.27,0.14,9.96,-0.03,-0.00,-0.00,32.11
45575169,2015,1,210028,242703,1.27,0.16,9.91,-0.03,-0.01,-0.00,32.11
45615170,2034,1,210082,242905,1.24,0.15,9.90,-0.03,-0.01,-0.01,32.11
45655170,2033,1,210194,243351,1.25,0.16,9.92,-0.03,-0.01,-0.00,32.11
45695169,2073,1,210389,243719,1.27,0.15,9.91,-0.03,-0.01,-0.00,32.11
45735169,2078,1,210601,244107,1.26,0.14,9.92,-0.04,-0.01,-0.01,32.11
45775170,2045,1,210765,244596,1.23,0.15,9.92,-0.04,-0.01,-0.01,32.11
45815170,2030,1,210999,245136,1.24,0.15,9.92,-0.04,-0.01,-0.00,32.11
45855170,2027,1,211207,245564,1.26,0.16,9.94,-0.03,-0.01,-0.00,32.11
45895170,2018,1,211348,245970,1.26,0.15,9.90,-0.03,-0.01,-0.00,32.11
45935170,2001,1,211398,246142,1.24,0.15,9.92,-0.03,-0.01,-0.00,32.11
45975169,2011,1,211448,246327,1.25,0.15,9.90,-0.03,-0.01,-0.00,32.11
46015170,2015,1,211447,246466,1.25,0.14,9.92,-0.03,-0.02,-0.00,32.11
46055856,1998,1,211499,246683,1.26,0.13,9.90,-0.03,-0.01,-0.00,31.85
46094170,2066,1,211545,246830,1.24,0.14,9.93,-0.03,-0.01,-0.00,31.85
46134169,2046,1,211429,246070,1.26,0.14,9.90,-0.03,-0.01,-0.00,31.85
46174169,2047,1,211043,245074,1.26,0.14,9.94,-0.03,-0.01,-0.00,31.85
46214170,2054,1,210746,244498,1.27,0.15,9.91,-0.03,-0.01,-0.00,31.85
46254170,2041,1,210564,244235,1.27,0.12,9.91,-0.03,-0.01,-0.00,31.85
46294169,2055,1,210454,243999,1.26,0.15,9.92,-0.03,-0.01,-0.00,31.85
46334170,2069,1,210341,243895,1.24,0.14,9.94,-0.03,-0.01,-0.00,31.85
46374170,2046,1,210303,243997,1.26,0.13,9.92,-0.03,-0.01,-0.00,31.85
46414169,2036,1,210334,244075,1.27,0.14,9.91,-0.03,-0.01,-0.00,31.85
46454170,1987,1,210404,244252,1.29,0.16,9.92,-0.03,-0.01,-0.00,31.85
46494169,2010,1,210556,244656,1.28,0.14,9.93,-0.03,-0.01,-0.00,31.85
46534169,2009,1,210831,245131,1.26,0.15,9.92,-0.03,-0.00,-0.01,31.85
46574170,2011,1,211098,245621,1.24,0.15,9.92,-0.04,-0.00,-0.00,31.85
46614170,2035,1,211258,245941,1.24,0.15,9.92,-0.03,-0.01,-0.01,31.85
46654170,2032,1,211382,246147,1.24,0.14,9.94,-0.03,-0.01,-0.00,31.85
46694188,2045,1,211403,246221,1.24,0.14,9.94,-0.03,-0.01,-0.00,31.85
46734170,2003,1,211398,246194,1.26,0.13,9.95,-0.03,-0.02,-0.00,31.85
46774169,2036,1,211341,246219,1.26,0.15,9.93,-0.03,-0.01,-0.00,31.85
46814170,2067,1,211218,245728,1.26,0.15,9.91,-0.03,-0.01,-0.01,31.85
46854169,2056,1,210905,244556,1.25,0.14,9.91,-0.03,-0.01,-0.00,31.85
46894187,2032,1,210504,243839,1.27,0.16,9.91,-0.03,-0.01,-0.00,31.85
46934169,2062,1,210381,243763,1.26,0.17,9.90,-0.03,-0.01,-0.00,31.85
46974170,2054,1,210460,243920,1.25,0.14,9.93,-0.03,-0.01,-0.00,31.85
47014169,2059,1,210549,244172,1.28,0.15,9.96,-0.03,-0.01,-0.00,31.85
47054170,2034,1,210756,244639,1.26,0.15,9.93,-0.03,-0.01,-0.00,31.85
47094856,1978,1,210872,245004,1.26,0.16,9.94,-0.03,-0.01,-0.00,31.97
47135169,2000,1,211015,245290,1.26,0.11,9.96,-0.03,-0.01,-0.00,31.97
47175169,1991,1,211195,245594,1.25,0.15,9.93,-0.03,-0.00,-0.00,31.97
47215170,1983,1,211375,246097,1.25,0.17,9.92,-0.04,-0.00,-0.00,31.97
47255169,2001,1,211651,246587,1.25,0.14,9.93,-0.04,-0.00,-0.01,31.97
47295170,1995,1,211754,246861,1.24,0.14,9.92,-0.03,-0.01,-0.00,31.97
47335169,2019,1,211901,247221,1.24,0.17,9.92,-0.03,-0.01,-0.00,31.97
47375170,2029,1,212010,247531,1.25,0.15,9.90,-0.03,-0.01,-0.00,31.97
47415170,2017,1,212110,247855,1.22,0.13,9.94,-0.03,-0.01,-0.00,31.97
47455169,2013,1,212179,247827,1.25,0.15,9.91,-0.03,-0.01,-0.01,31.97
47495169,2046,1,212019,246887,1.25,0.16,9.94,-0.03,-0.01,-0.00,31.97
47535170,2018,1,211478,245410,1.26,0.16,9.91,-0.03,-0.01,-0.00,31.97
47575169,1999,1,211012,244571,1.26,0.15,9.91,-0.03,-0.01,-0.00,31.97
47615170,2021,1,210839,244352,1.25,0.15,9.91,-0.03,-0.01,-0.00,31.97
47655170,1953,1,210795,244415,1.25,0.16,9.91,-0.03,-0.01,-0.00,31.97
47695169,1904,1,210897,244684,1.26,0.15,9.94,-0.03,-0.01,-0.00,31.97
47735169,1885,1,211192,245276,1.27,0.13,9.92,-0.04,-0.00,-0.01,31.97
47775169,1906,1,211453,245773,1.24,0.15,9.93,-0.04,-0.00,-0.01,31.97
47815170,1909,1,211807,246186,1.25,0.15,9.93,-0.04,-0.01,-0.01,31.97
47855170,1936,1,212047,246739,1.23,0.16,9.93,-0.04,-0.00,-0.00,31.97
47895169,1983,1,212304,247262,1.24,0.15,9.95,-0.04,-0.00,-0.01,31.97
47935170,1984,1,212584,247636,1.22,0.14,9.91,-0.03,-0.01,-0.01,31.97
47975170,1988,1,212753,247868,1.22,0.15,9.93,-0.03,-0.01,-0.01,31.97
48015170,1974,1,212720,247912,1.21,0.16,9.93,-0.03,-0.02,-0.00,31.97
48055169,2013,1,212736,247926,1.23,0.14,9.93,-0.03,-0.02,-0.00,31.97
48093856,2059,1,212698,247849,1.24,0.15,9.94,-0.03,-0.01,-0.00,31.95
48134169,2067,1,212629,247793,1.25,0.17,9.92,-0.03,-0.02,-0.00,31.95
48174170,2031,1,212490,247008,1.24,0.15,9.91,-0.03,-0.01,-0.00,31.95
48214169,2038,1,212091,245517,1.25,0.16,9.94,-0.04,-0.01,-0.00,31.95
48254170,2033,1,211769,245171,1.23,0.17,9.95,-0.04,-0.01,-0.01,31.95
48294169,2038,1,212001,245487,1.24,0.15,9.94,-0.04,-0.01,-0.01,31.95
48334200,2055,1,212295,245964,1.24,0.13,9.93,-0.04,-0.02,-0.00,31.95
48374169,2098,1,212533,246377,1.24,0.16,9.92,-0.04,-0.02,-0.00,31.95
48414170,2137,1,212667,246693,1.22,0.15,9.93,-0.03,-0.02,-0.00,31.95
48454169,2173,1,212651,246611,1.24,0.13,9.93,-0.03,-0.03,-0.00,31.95
48494170,2174,1,212466,246366,1.25,0.15,9.90,-0.03,-0.03,-0.00,31.95
48534204,2180,1,212295,246272,1.27,0.13,9.92,-0.03,-0.02,-0.00,31.95
48574169,2199,1,212249,246259,1.27,0.15,9.94,-0.03,-0.01,-0.00,31.95
48614169,2192,1,212148,246334,1.27,0.15,9.91,-0.03,-0.02,-0.00,31.95
48654170,2158,1,212166,246572,1.28,0.15,9.93,-0.03,-0.01,-0.00,31.95
48694169,2147,1,212237,246858,1.26,0.14,9.90,-0.03,-0.01,-0.00,31.95
48734170,2140,1,212346,247166,1.27,0.14,9.93,-0.03,-0.01,-0.00,31.95
48774169,2096,1,212422,247487,1.28,0.16,9.90,-0.03,-0.01,-0.00,31.95
48814170,2078,1,212585,247877,1.27,0.14,9.92,-0.04,-0.01,-0.00,31.95
48854169,2064,1,212675,248049,1.26,0.14,9.92,-0.03,-0.01,-0.00,31.95
48894170,2029,1,212554,247139,1.26,0.14,9.93,-0.03,-0.02,-0.00,31.95
48934169,2017,1,212088,245965,1.27,0.16,9.92,-0.03,-0.01,-0.00,31.95
48974170,2007,1,211820,245498,1.27,0.14,9.90,-0.03,-0.01,-0.00,31.95
49014169,1983,1,211785,245538,1.28,0.14,9.93,-0.04,-0.01,-0.00,31.95
49054170,1977,1,211823,245724,1.29,0.15,9.83,-0.04,-0.01,-0.00,31.95
49094170,1968,1,211890,245974,1.28,0.16,9.93,-0.04,-0.01,-0.00,31.95
49134856,1933,1,211927,246246,1.28,0.13,9.93,-0.03,-0.01,-0.00,31.97
49173169,2011,1,211993,246385,1.28,0.17,9.94,-0.03,-0.01,-0.00,31.97
49213170,2026,1,212051,246460,1.27,0.13,9.91,-0.03,-0.01,-0.01,31.97
49253169,2006,1,212112,246735,1.28,0.14,9.91,-0.03,-0.00,-0.01,31.97
49293169,2016,1,212238,247149,1.27,0.15,9.94,-0.03,-0.00,-0.00,31.97
49333169,1998,1,212472,247596,1.26,0.15,9.94,-0.03,-0.00,-0.00,31.97
49373170,2010,1,212714,248102,1.26,0.15,9.94,-0.04,-0.01,-0.00,31.97
49413169,2021,1,213000,248611,1.27,0.13,9.93,-0.04,-0.00,-0.00,31.97
49453170,2032,1,213170,248852,1.25,0.15,9.93,-0.03,-0.01,-0.01,31.97
49493169,2034,1,213159,248871,1.25,0.14,9.94,-0.03,-0.02,-0.00,31.97
49533170,2015,1,213065,248775,1.26,0.15,9.92,-0.03,-0.02,-0.00,31.97
49573169,2038,1,212940,248117,1.26,0.14,9.92,-0.03,-0.02,-0.00,31.97
49613170,2022,1,212408,246599,1.27,0.15,9.92,-0.03,-0.02,-0.00,31.97
49653169,2015,1,211916,245603,1.29,0.15,9.90,-0.03,-0.01,-0.00,31.97
49693170,2034,1,211733,245552,1.28,0.14,9.95,-0.03,-0.01,-0.00,31.97
49733169,2011,1,211804,245712,1.29,0.12,9.92,-0.03,-0.01,-0.00,31.97
49773170,2034,1,211892,246043,1.28,0.17,9.89,-0.03,-0.01,-0.00,31.97
49813169,2037,1,212098,246504,1.26,0.14,9.93,-0.03,-0.00,-0.00,31.97
49853170,2009,1,212307,246778,1.25,0.15,9.92,-0.03,-0.00,-0.00,31.97
49893169,2030,1,212407,246762,1.28,0.16,9.94,-0.03,-0.01,-0.00,31.97
49933170,2043,1,212410,246792,1.26,0.13,9.92,-0.03,-0.01,-0.00,31.97
49973169,2041,1,212511,247079,1.25,0.16,9.94,-0.03,-0.00,-0.01,31.97
50013170,2030,1,212611,247395,1.27,0.15,9.92,-0.03,-0.01,-0.00,31.97
50053169,2047,1,212769,247590,1.25,0.14,9.91,-0.03,-0.01,-0.00,31.97
50093170,2035,1,212798,247718,1.28,0.14,9.95,-0.03,-0.01,-0.00,31.97
50133169,2059,1,212841,247775,1.25,0.14,9.91,-0.03,-0.02,-0.00,31.97
50173907,1985,1,212856,247827,1.28,0.15,9.94,-0.03,-0.02,-0.00,32.03
50214169,2027,1,212842,247752,1.29,0.14,9.91,-0.03,-0.01,-0.00,32.03
50254170,2009,1,212665,246685,1.27,0.15,9.91,-0.03,-0.01,-0.00,32.03
50294169,1996,1,212134,245257,1.26,0.15,9.91,-0.03,-0.01,-0.00,32.03
50334169,1988,1,211757,244718,1.29,0.15,9.93,-0.03,-0.00,-0.00,32.03
50374169,1958,1,211776,244901,1.27,0.17,9.94,-0.03,-0.00,-0.01,32.03
50413170,2045,1,211947,245166,1.24,0.15,9.91,-0.03,-0.01,-0.00,32.03
50453169,2059,1,212092,245462,1.27,0.16,9.92,-0.03,-0.01,-0.00,32.03
50493169,2030,1,212199,245771,1.26,0.15,9.90,-0.03,-0.01,-0.00,32.03
50533169,2045,1,212285,245790,1.25,0.14,9.90,-0.03,-0.01,-0.00,32.03
50573169,2035,1,212245,245728,1.26,0.13,9.93,-0.03,-0.01,-0.00,32.03
50613169,2039,1,212220,245737,1.27,0.17,9.93,-0.03,-0.01,-0.00,32.03
50653169,2019,1,212243,245915,1.27,0.16,9.91,-0.03,-0.01,-0.00,32.03
50693169,2035,1,212316,246136,1.24,0.14,9.92,-0.03,-0.01,-0.00,32.03
50733169,2033,1,212452,246479,1.28,0.14,9.93,-0.03,-0.01,-0.00,32.03
50773169,2017,1,212622,246978,1.26,0.16,9.94,-0.03,-0.01,-0.01,32.03
50813169,2032,1,212879,247380,1.24,0.14,9.91,-0.04,-0.01,-0.00,32.03
50853169,2035,1,213064,247825,1.26,0.15,9.92,-0.03,-0.01,-0.00,32.03
50893169,2018,1,213086,247618,1.27,0.14,9.92,-0.03,-0.01,-0.00,32.03
50933169,1998,1,212758,246096,1.25,0.14,9.94,-0.03,-0.01,-0.00,32.03
50973170,2019,1,212138,244792,1.27,0.14,9.93,-0.03,-0.01,-0.00,32.03
51013169,1983,1,211890,244542,1.26,0.14,9.94,-0.03,-0.01,-0.00,32.03
51053169,2010,1,211977,244725,1.26,0.14,9.92,-0.03,-0.01,-0.00,32.03
51093169,2000,1,212004,244947,1.27,0.15,9.90,-0.03,-0.01,-0.00,32.03
51133170,2015,1,212195,245506,1.26,0.14,9.92,-0.03,-0.01,-0.00,32.03
51173856,1971,1,212446,246048,1.25,0.14,9.91,-0.04,-0.01,-0.00,32.09
51214169,1993,1,212581,246298,1.26,0.15,9.90,-0.04,-0.01,-0.00,32.09
51254169,1983,1,212666,246530,1.24,0.15,9.93,-0.03,-0.01,-0.00,32.09
51292169,2101,1,212822,246866,1.26,0.15,9.90,-0.03,-0.01,-0.00,32.09
51332169,2099,1,212966,247299,1.27,0.14,9.92,-0.03,-0.01,-0.00,32.09
51372169,2096,1,213182,247806,1.26,0.15,9.92,-0.03,-0.01,-0.01,32.09
51413169,2013,1,213396,248119,1.27,0.12,9.92,-0.03,-0.01,-0.00,32.09
51453169,2034,1,213471,248437,1.25,0.14,9.91,-0.03,-0.01,-0.00,32.09
51493169,2025,1,213546,248591,1.27,0.14,9.94,-0.03,-0.01,-0.00,32.09
51533170,2001,1,213670,248909,1.26,0.15,9.93,-0.03,-0.01,-0.00,32.09
51573169,1994,1,213694,248076,1.26,0.16,9.92,-0.03,-0.01,-0.00,32.09
51613193,1973,1,213125,246467,1.26,0.15,9.93,-0.03,-0.01,-0.00,32.09
51653169,1975,1,212708,245642,1.27,0.15,9.92,-0.03,-0.01,-0.00,32.09
51693169,1985,1,212590,245658,1.26,0.15,9.92,-0.03,-0.01,-0.00,32.09
51733169,2001,1,212625,245764,1.26,0.13,9.92,-0.03,-0.02,-0.00,32.09
51773169,1997,1,212602,245927,1.27,0.15,9.91,-0.03,-0.02,-0.00,32.09
51813208,1993,1,212684,246302,1.28,0.12,9.91,-0.03,-0.01,-0.00,32.09
51853170,2010,1,212826,246554,1.27,0.15,9.89,-0.03,-0.01,-0.00,32.09
51893169,1983,1,212835,246659,1.27,0.13,9.93,-0.03,-0.01,-0.01,32.09
51933169,2018,1,212912,246857,1.26,0.15,9.93,-0.03,-0.01,-0.00,32.09
51973169,2032,1,212966,247108,1.28,0.14,9.91,-0.03,-0.01,-0.00,32.09
52013194,2012,1,213126,247472,1.25,0.14,9.93,-0.03,-0.01,-0.00,32.09
52053170,2009,1,213250,247732,1.25,0.15,9.94,-0.03,-0.01,-0.00,32.09
52093170,2026,1,213291,247930,1.27,0.14,9.93,-0.03,-0.01,-0.00,32.09
52133169,2000,1,213344,248069,1.26,0.15,9.93,-0.03,-0.01,-0.00,32.09
52173170,1989,1,213348,248230,1.26,0.17,9.90,-0.03,-0.01,-0.00,32.09
52213856,1968,1,213421,248381,1.28,0.14,9.91,-0.03,-0.01,-0.00,31.99
52252170,2043,1,213273,247380,1.27,0.16,9.94,-0.03,-0.01,-0.00,31.99
52292170,2061,1,212726,246035,1.24,0.12,9.91,-0.03,-0.01,-0.00,31.99
52332169,2035,1,212422,245545,1.27,0.16,9.92,-0.03,-0.00,-0.00,31.99
52372170,2074,1,212480,245849,1.26,0.15,9.92,-0.03,-0.00,-0.00,31.99
52412170,2081,1,212714,246253,1.24,0.15,9.93,-0.03,-0.00,-0.00,31.99
52453169,1995,1,212910,246670,1.25,0.15,9.94,-0.03,-0.01,-0.00,31.99
52493170,1981,1,213122,247264,1.25,0.15,9.91,-0.03,-0.02,-0.00,31.99
52533169,1993,1,213300,247378,1.26,0.15,9.90,-0.03,-0.01,-0.00,31.99
52573170,1970,1,213223,247287,1.30,0.13,9.87,-0.03,-0.02,-0.00,31.99
52613170,2001,1,213115,247368,1.27,0.15,9.91,-0.03,-0.02,-0.00,31.99
52653170,2012,1,213166,247365,1.27,0.16,9.94,-0.03,-0.02,-0.00,31.99
52693170,2013,1,213065,247326,1.25,0.18,9.87,-0.03,-0.01,-0.00,31.99
52733170,2017,1,213050,247449,1.25,0.15,9.94,-0.03,-0.01,-0.00,31.99
52773170,2027,1,213107,247411,1.26,0.14,9.95,-0.03,-0.01,-0.00,31.99
52813170,2027,1,213049,247564,1.28,0.15,9.87,-0.03,-0.01,-0.00,31.99
52853170,1991,1,213084,247732,1.28,0.11,9.96,-0.03,-0.01,-0.00,31.99
52893170,1987,1,213128,247256,1.26,0.16,9.94,-0.03,-0.01,-0.00,31.99
52933169,2000,1,212695,245830,1.25,0.14,9.94,-0.03,-0.01,-0.00,31.99
52973169,1989,1,212254,245000,1.27,0.15,9.93,-0.03,-0.01,-0.00,31.99
53013169,1998,1,212157,245113,1.26,0.16,9.92,-0.04,-0.02,-0.00,31.99
53053170,1998,1,212324,245511,1.27,0.12,9.90,-0.03,-0.02,-0.00,31.99
53093170,2000,1,212537,246085,1.27,0.16,9.90,-0.03,-0.01,-0.00,31.99
53133170,1999,1,212828,246743,1.27,0.15,9.92,-0.03,-0.01,-0.00,31.99
53173169,1984,1,212976,246981,1.27,0.15,9.92,-0.03,-0.01,-0.01,31.99
53213169,1993,1,213105,247071,1.27,0.14,9.92,-0.03,-0.01,-0.00,31.99
53253856,1952,1,213173,247375,1.26,0.13,9.91,-0.03,-0.01,-0.00,31.85
53292170,2075,1,213343,247830,1.29,0.16,9.93,-0.03,-0.01,-0.00,31.85
53332169,2059,1,213615,248373,1.26,0.15,9.91,-0.04,-0.01,-0.01,31.85
53372170,2034,1,213855,248768,1.24,0.12,9.92,-0.03,-0.01,-0.00,31.85
53412169,2061,1,213906,248921,1.29,0.16,9.91,-0.03,-0.01,-0.00,31.85
53453170,1999,1,213895,248990,1.24,0.14,9.94,-0.03,-0.02,-0.00,31.85
53493169,1986,1,213866,249094,1.28,0.13,9.94,-0.03,-0.01,-0.00,31.85
53533170,1993,1,213839,248758,1.27,0.14,9.91,-0.03,-0.01,-0.00,31.85
53573170,1997,1,213371,246822,1.26,0.13,9.91,-0.03,-0.01,-0.00,31.85
53613170,1967,1,212542,245189,1.27,0.14,9.93,-0.03,-0.01,-0.00,31.85
53653169,1983,1,212028,244421,1.28,0.16,9.94,-0.03,-0.02,-0.00,31.85
53693170,1975,1,211877,244192,1.28,0.13,9.92,-0.03,-0.01,-0.00,31.85
53733169,2005,1,211813,244149,1.28,0.14,9.92,-0.03,-0.02,-0.00,31.85
53773170,2023,1,211776,244468,1.27,0.15,9.91,-0.04,-0.02,-0.00,31.85
53813169,2018,1,212034,245157,1.28,0.16,9.91,-0.04,-0.02,-0.00,31.85
53853170,2031,1,212268,245739,1.28,0.13,9.93,-0.04,-0.01,-0.00,31.85
53893170,2032,1,212469,245936,1.28,0.15,9.95,-0.04,-0.02,-0.00,31.85
53933170,2011,1,212438,246150,1.29,0.13,9.93,-0.03,-0.02,-0.00,31.85
53973169,1995,1,212554,246443,1.32,0.15,9.94,-0.03,-0.02,-0.00,31.85
54013170,2077,1,212673,246964,1.28,0.14,9.92,-0.03,-0.01,-0.01,31.85
54053169,2101,1,212891,247552,1.30,0.13,9.94,-0.03,-0.00,-0.01,31.85
54093170,2064,1,213069,247987,1.28,0.13,9.89,-0.03,-0.00,-0.00,31.85
54133169,2079,1,213329,248502,1.28,0.15,9.94,-0.03,-0.01,-0.00,31.85
54173170,2064,1,213550,249023,1.29,0.14,9.91,-0.03,-0.01,-0.00,31.85
54213170,2042,1,213646,248314,1.27,0.15,9.93,-0.03,-0.01,-0.00,31.85
54253856,2015,1,213177,246616,1.29,0.13,9.94,-0.03,-0.01,-0.00,31.97
54292169,2087,1,212726,245917,1.29,0.13,9.92,-0.03,-0.01,-0.00,31.97
54332169,2122,1,212603,245854,1.29,0.15,9.92,-0.03,-0.01,-0.00,31.97
54372169,2111,1,212670,245957,1.27,0.14,9.90,-0.03,-0.00,-0.00,31.97
54412170,2064,1,212715,246189,1.29,0.14,9.92,-0.03,-0.01,-0.00,31.97
54452169,2083,1,212865,246522,1.30,0.11,9.93,-0.03,-0.00,-0.00,31.97
54493170,2018,1,212937,246615,1.30,0.15,9.94,-0.03,-0.01,-0.00,31.97
54533169,2011,1,212813,246347,1.29,0.14,9.93,-0.03,-0.01,-0.00,31.97
54573170,2007,1,212688,246112,1.28,0.13,9.90,-0.03,-0.01,-0.00,31.97
54613169,1997,1,212593,246155,1.29,0.14,9.90,-0.03,-0.01,-0.00,31.97
54653170,2002,1,212529,246145,1.27,0.14,9.93,-0.03,-0.01,-0.00,31.97
54693170,2003,1,212539,246090,1.28,0.15,9.90,-0.03,-0.01,-0.00,31.97
54733170,1989,1,212487,246079,1.29,0.13,9.92,-0.03,-0.01,-0.00,31.97
54771169,2079,1,212457,246156,1.30,0.15,9.94,-0.03,-0.01,-0.00,31.97
54811170,2063,1,212472,246313,1.27,0.16,9.91,-0.03,-0.01,-0.00,31.97
54851169,2037,1,212579,246386,1.28,0.15,9.93,-0.03,-0.01,-0.00,31.97
54891170,2026,1,212472,245387,1.29,0.13,9.93,-0.03,-0.01,-0.00,31.97
54931169,2023,1,211924,243939,1.29,0.13,9.95,-0.03,-0.00,-0.01,31.97
54971169,1983,1,211578,243461,1.25,0.14,9.92,-0.03,-0.01,-0.00,31.97
55011169,1984,1,211641,243494,1.27,0.15,9.93,-0.03,-0.01,-0.00,31.97
55051170,1969,1,211766,243741,1.29,0.12,9.94,-0.03,-0.01,-0.00,31.97
55091186,1958,1,211970,244210,1.27,0.16,9.92,-0.03,-0.01,-0.01,31.97
55131170,1971,1,212269,244755,1.29,0.14,9.90,-0.04,-0.01,-0.00,31.97
55171169,1971,1,212403,245006,1.29,0.13,9.92,-0.03,-0.01,-0.00,31.97
55211169,1982,1,212453,245095,1.28,0.14,9.91,-0.03,-0.01,-0.00,31.97
55251169,2000,1,212527,245360,1.29,0.13,9.93,-0.03,-0.01,-0.00,31.97
55291856,1913,1,212621,245723,1.29,0.14,9.95,-0.03,-0.01,-0.00,32.11
55332169,1931,1,212793,246041,1.25,0.15,9.93,-0.03,-0.01,-0.00,32.11
55372170,1922,1,212884,246399,1.29,0.13,9.90,-0.03,-0.01,-0.00,32.11
55412170,1899,1,212963,246860,1.27,0.15,9.91,-0.03,-0.01,-0.00,32.11
55452170,1899,1,213173,247262,1.27,0.15,9.87,-0.03,-0.01,-0.00,32.11
55492170,1904,1,213279,247532,1.28,0.15,9.92,-0.03,-0.01,-0.00,32.11
55532170,1910,1,213295,246855,1.30,0.15,9.92,-0.03,-0.01,-0.00,32.11
55572169,1899,1,212713,245069,1.29,0.15,9.92,-0.03,-0.01,-0.00,32.11
55612170,1894,1,212112,243997,1.27,0.13,9.94,-0.03,-0.01,-0.00,32.11
55652169,1915,1,211863,243782,1.29,0.16,9.94,-0.03,-0.01,-0.00,32.11
55692169,1904,1,211839,243907,1.29,0.16,9.91,-0.03,-0.01,-0.00,32.11
55732169,1926,1,211881,244213,1.29,0.14,9.92,-0.03,-0.01,-0.00,32.11
55772170,1919,1,212142,244791,1.27,0.14,9.92,-0.03,-0.01,-0.00,32.11
55812169,1943,1,212395,245270,1.29,0.15,9.90,-0.04,-0.00,-0.00,32.11
55852167,1932,1,212578,245519,1.26,0.15,9.92,-0.03,-0.00,-0.01,32.11
55892169,1949,1,212796,246004,1.26,0.13,9.96,-0.03,-0.00,-0.01,32.11
55932170,1956,1,213012,246544,1.28,0.12,9.94,-0.03,-0.01,-0.00,32.11
55972169,1939,1,213109,246787,1.21,0.17,9.98,-0.04,-0.02,-0.00,32.11
56012170,1958,1,213077,246898,1.27,0.12,9.92,-0.03,-0.01,-0.00,32.11
56052169,1927,1,213067,246888,1.27,0.14,9.90,-0.03,-0.02,-0.00,32.11
56092170,1917,1,212977,246848,1.26,0.13,9.93,-0.03,-0.02,-0.00,32.11
56132169,1945,1,212909,246725,1.27,0.15,9.93,-0.03,-0.02,-0.00,32.11
56172170,1941,1,212727,245893,1.28,0.16,9.90,-0.03,-0.01,-0.00,32.11
56212169,1927,1,212159,244144,1.28,0.16,9.90,-0.03,-0.01,-0.00,32.11
56252170,1970,1,211614,243097,1.30,0.15,9.94,-0.03,-0.01,-0.01,32.11
56292856,1913,1,211456,242993,1.26,0.15,9.93,-0.03,-0.01,-0.00,32.11
56331170,2003,1,211585,243286,1.28,0.16,9.93,-0.03,-0.00,-0.00,32.11
56371170,1968,1,211807,243790,1.28,0.13,9.91,-0.04,-0.00,-0.00,32.11
56411169,2004,1,212113,244584,1.27,0.14,9.91,-0.04,-0.00,-0.00,32.11
56451169,1994,1,212400,245031,1.27,0.15,9.94,-0.04,-0.00,-0.00,32.11
56491170,2005,1,212634,245302,1.26,0.14,9.93,-0.04,-0.01,-0.00,32.11
56531169,1993,1,212755,245449,1.27,0.13,9.95,-0.03,-0.01,-0.00,32.11
56571170,1997,1,212856,245671,1.27,0.14,9.92,-0.03,-0.01,-0.00,32.11
56611169,2004,1,212905,245754,1.28,0.14,9.92,-0.03,-0.02,-0.00,32.11
56651169,2005,1,212867,245907,1.28,0.15,9.93,-0.03,-0.01,-0.00,32.11
56691169,1973,1,212835,245899,1.24,0.14,9.93,-0.03,-0.01,-0.00,32.11
56731205,1968,1,212706,245777,1.26,0.14,9.92,-0.03,-0.02,-0.00,32.11
56771170,1954,1,212681,245854,1.28,0.16,9.91,-0.03,-0.01,-0.00,32.11
56811170,1968,1,212699,245911,1.30,0.14,9.92,-0.03,-0.01,-0.00,32.11
56851169,1970,1,212571,244723,1.29,0.15,9.90,-0.03,-0.01,-0.00,32.11
56891170,1967,1,212003,243420,1.27,0.14,9.92,-0.04,-0.00,-0.00,32.11
56931203,1968,1,211793,243281,1.26,0.16,9.94,-0.04,0.00,-0.00,32.11
56971157,1971,1,212049,243712,1.25,0.14,9.93,-0.04,-0.00,-0.01,32.11
57011169,1968,1,212268,244145,1.25,0.16,9.93,-0.04,-0.01,-0.00,32.11
57051169,1979,1,212564,244786,1.25,0.14,9.92,-0.04,-0.01,-0.00,32.11
57091169,1976,1,212763,245132,1.27,0.14,9.91,-0.03,-0.01,-0.00,32.11
57131170,1997,1,212828,245230,1.25,0.14,9.95,-0.03,-0.01,-0.00,32.11
57171170,1971,1,212831,245239,1.27,0.15,9.91,-0.03,-0.01,-0.00,32.11
57211170,2000,1,212796,245328,1.28,0.13,9.94,-0.03,-0.01,-0.00,32.11
57251169,1987,1,212814,245480,1.28,0.16,9.96,-0.03,-0.01,-0.00,32.11
57291169,1981,1,212750,245633,1.27,0.15,9.93,-0.03,-0.01,-0.00,32.11
57331856,1913,1,212749,245900,1.27,0.16,9.91,-0.03,-0.01,-0.00,32.27
57372169,1898,1,212846,246175,1.26,0.14,9.95,-0.03,-0.01,-0.00,32.27
57412169,1924,1,212993,246569,1.26,0.13,9.94,-0.03,-0.01,-0.00,32.27
57452170,1906,1,213150,246943,1.28,0.13,9.93,-0.03,-0.01,-0.00,32.27
57492169,1924,1,213138,246115,1.28,0.13,9.92,-0.03,-0.01,-0.00,32.27
57532170,1905,1,212599,244497,1.28,0.13,9.92,-0.03,-0.01,-0.00,32.27
57572169,1921,1,212120,243764,1.28,0.13,9.92,-0.03,-0.02,-0.00,32.27
57612170,1938,1,212030,243670,1.27,0.14,9.93,-0.03,-0.02,-0.00,32.27
57652169,1934,1,211983,243608,1.26,0.15,9.90,-0.03,-0.02,-0.00,32.27
57692169,1959,1,211925,243664,1.27,0.15,9.95,-0.03,-0.02,-0.00,32.27
57732169,1957,1,211979,243940,1.29,0.15,9.93,-0.03,-0.01,-0.00,32.27
57772170,1946,1,211991,243960,1.28,0.14,9.91,-0.03,-0.01,-0.00,32.27
57810169,2053,1,212038,243938,1.29,0.14,9.94,-0.03,-0.01,-0.00,32.27
57850170,2059,1,211962,244014,1.28,0.16,9.94,-0.03,-0.01,-0.00,32.27
57890169,2032,1,212039,244170,1.26,0.14,9.93,-0.03,-0.01,-0.00,32.27
57930170,2043,1,212126,244528,1.28,0.15,9.90,-0.03,-0.01,-0.00,32.27
57970169,2006,1,212277,244933,1.29,0.13,9.92,-0.03,-0.01,-0.00,32.27
58010169,2015,1,212373,245297,1.29,0.13,9.92,-0.03,-0.02,-0.00,32.27
58050169,2035,1,212500,245572,1.27,0.14,9.91,-0.03,-0.01,-0.00,32.27
58090170,2003,1,212621,245802,1.28,0.14,9.92,-0.03,-0.01,-0.00,32.27
58130169,2018,1,212587,244735,1.29,0.17,9.93,-0.03,-0.01,-0.00,32.27
58170170,2018,1,212015,243224,1.29,0.13,9.91,-0.03,-0.01,-0.00,32.27
58210169,2025,1,211637,242649,1.28,0.15,9.93,-0.03,-0.01,-0.00,32.27
58250170,2032,1,211633,242783,1.28,0.15,9.90,-0.03,-0.01,-0.01,32.27
58290169,1995,1,211708,243007,1.29,0.17,9.92,-0.03,-0.01,-0.00,32.27
58330170,2019,1,211804,243353,1.28,0.14,9.92,-0.03,-0.01,-0.00,32.27
58370907,1930,1,211994,243869,1.27,0.12,9.93,-0.03,-0.01,-0.00,32.11
58411170,1922,1,212188,244150,1.27,0.15,9.94,-0.03,-0.01,-0.00,32.11
58451169,1920,1,212244,244288,1.29,0.15,9.92,-0.03,-0.01,-0.00,32.11
58491169,1929,1,212313,244581,1.28,0.14,9.92,-0.03,-0.01,-0.00,32.11
58531169,1939,1,212539,245091,1.26,0.15,9.91,-0.03,-0.01,-0.00,32.11
58571174,1920,1,212745,245614,1.28,0.14,9.91,-0.03,-0.01,-0.00,32.11
58611169,1931,1,212941,246031,1.26,0.15,9.92,-0.03,-0.01,-0.00,32.11
58651170,1926,1,213127,246456,1.25,0.16,9.92,-0.03,-0.01,-0.00,32.11
58691169,1911,1,213282,246755,1.26,0.14,9.94,-0.03,-0.01,-0.00,32.11
58731170,1918,1,213376,247053,1.26,0.13,9.98,-0.03,-0.00,-0.00,32.11
58771186,1934,1,213386,246293,1.27,0.14,9.90,-0.03,-0.01,-0.00,32.11
58811170,1922,1,212735,244535,1.27,0.14,9.94,-0.03,-0.01,-0.01,32.11
58851169,1942,1,212248,243689,1.27,0.13,9.93,-0.03,-0.01,-0.00,32.11
58891170,1927,1,212152,243774,1.28,0.16,9.92,-0.03,-0.01,-0.01,32.11
58931169,1952,1,212209,243947,1.26,0.14,9.91,-0.03,-0.01,-0.00,32.11
58971170,1935,1,212224,244147,1.28,0.15,9.92,-0.03,-0.01,-0.00,32.11
59011169,1957,1,212377,244640,1.27,0.13,9.92,-0.03,-0.01,-0.00,32.11
59051170,1938,1,212521,244898,1.27,0.14,9.92,-0.03,-0.01,-0.00,32.11
59091169,1959,1,212564,244972,1.27,0.17,9.92,-0.03,-0.01,-0.00,32.11
59131170,1941,1,212643,245154,1.28,0.14,9.90,-0.03,-0.01,-0.00,32.11
59171169,1947,1,212793,245592,1.26,0.13,9.92,-0.03,-0.01,-0.00,32.11
59211169,1931,1,212927,245983,1.28,0.13,9.92,-0.03,-0.01,-0.00,32.11
59251169,1936,1,213047,246253,1.27,0.15,9.93,-0.03,-0.01,-0.00,32.11
59291169,1939,1,213148,246495,1.26,0.15,9.91,-0.03,-0.01,-0.01,32.11
59331169,1926,1,213282,246833,1.25,0.15,9.92,-0.03,-0.01,-0.00,32.11
59371856,1885,1,213358,247049,1.26,0.14,9.91,-0.03,-0.01,-0.00,32.11
59410169,1971,1,213348,246338,1.26,0.16,9.92,-0.03,-0.01,-0.00,32.11
59450170,1967,1,212773,244511,1.26,0.15,9.92,-0.03,-0.01,-0.00,32.11
59490169,1983,1,212129,243413,1.26,0.14,9.92,-0.03,-0.01,-0.00,32.11
59530169,2000,1,211910,243270,1.29,0.13,9.91,-0.03,-0.01,-0.00,32.11
59570169,2001,1,211891,243398,1.28,0.16,9.96,-0.03,-0.01,-0.00,32.11
59610169,1966,1,211965,243657,1.28,0.16,9.91,-0.03,-0.01,-0.00,32.11
59650169,1972,1,212102,244056,1.28,0.13,9.92,-0.03,-0.01,-0.00,32.11
59690170,1995,1,212231,244248,1.28,0.14,9.91,-0.03,-0.01,-0.00,32.11
59730169,1979,1,212311,244341,1.27,0.13,9.92,-0.03,-0.01,-0.01,32.11
59770169,1967,1,212346,244618,1.30,0.15,9.93,-0.03,-0.01,-0.00,32.11
59810169,2000,1,212528,245008,1.26,0.17,9.90,-0.03,-0.01,-0.00,32.11
59850169,1957,1,212658,245443,1.25,0.15,9.91,-0.03,-0.01,-0.00,32.11
59890169,1923,1,212762,245668,1.28,0.13,9.94,-0.03,-0.02,-0.00,32.11
59930170,1946,1,212841,245904,1.28,0.15,9.91,-0.03,-0.01,-0.00,32.11
59970169,1937,1,212881,246080,1.25,0.15,9.93,-0.03,-0.01,-0.00,32.11
60010190,1952,1,212883,246180,1.27,0.13,9.95,-0.03,-0.01,-0.00,32.11
60050169,1942,1,212748,245125,1.28,0.15,9.90,-0.03,-0.02,-0.00,32.11
60090170,1950,1,212098,243302,1.28,0.12,9.95,-0.03,-0.01,-0.00,32.11
60130169,1941,1,211595,242387,1.29,0.15,9.90,-0.03,-0.01,-0.00,32.11
60170170,1962,1,211491,242438,1.29,0.14,9.92,-0.03,-0.01,-0.00,32.11
60210222,1978,1,211613,242696,1.27,0.15,9.90,-0.03,-0.01,-0.00,32.11
60250170,1968,1,211756,243054,1.30,0.14,9.91,-0.03,-0.01,-0.00,32.11
60290169,1951,1,211988,243598,1.28,0.14,9.94,-0.03,-0.01,-0.00,32.11
60330169,1970,1,212189,244016,1.28,0.15,9.93,-0.03,-0.01,-0.00,32.11
60370169,1968,1,212371,244180,1.28,0.15,9.93,-0.03,-0.01,-0.00,32.11
60410876,1921,1,212400,244402,1.29,0.13,9.94,-0.03,-0.01,-0.00,32.09
60451169,1919,1,212480,244578,1.27,0.16,9.92,-0.03,-0.01,-0.00,32.09
60491170,1909,1,212527,244841,1.26,0.14,9.92,-0.03,-0.02,-0.00,32.09
60531169,1887,1,212561,245084,1.28,0.14,9.92,-0.03,-0.02,-0.00,32.09
60571169,1925,1,212605,245283,1.28,0.12,9.95,-0.03,-0.01,-0.00,32.09
60611170,1925,1,212647,245529,1.27,0.16,9.88,-0.03,-0.01,-0.00,32.09
60651169,1891,1,212774,245854,1.28,0.13,9.91,-0.03,-0.01,-0.00,32.09
60691170,1917,1,212798,245469,1.29,0.17,9.91,-0.03,-0.01,-0.00,32.09
60731169,1904,1,212308,243805,1.29,0.16,9.93,-0.03,-0.01,-0.00,32.09
60771169,1909,1,211854,242924,1.30,0.16,9.91,-0.03,-0.01,-0.00,32.09
60811170,1919,1,211745,242919,1.28,0.14,9.95,-0.03,-0.01,-0.00,32.09
60851169,1907,1,211809,243150,1.27,0.14,9.91,-0.03,-0.01,-0.00,32.09
60891169,1927,1,212004,243437,1.27,0.15,9.92,-0.03,-0.01,-0.00,32.09
60931169,1920,1,212142,243980,1.27,0.14,9.94,-0.03,-0.01,-0.00,32.09
60971169,1927,1,212323,244273,1.28,0.12,9.95,-0.03,-0.01,-0.00,32.09
61011169,1926,1,212388,244297,1.26,0.15,9.92,-0.03,-0.01,-0.00,32.09
61051169,1904,1,212398,244409,1.28,0.13,9.93,-0.03,-0.01,-0.00,32.09
61091169,1911,1,212458,244603,1.28,0.15,9.91,-0.03,-0.01,-0.00,32.09
61131170,1863,1,212449,244889,1.28,0.14,9.91,-0.03,-0.01,-0.00,32.09
61171169,1877,1,212518,245152,1.28,0.14,9.92,-0.03,-0.01,-0.00,32.09
61211169,1872,1,212629,245581,1.28,0.16,9.94,-0.03,-0.01,-0.00,32.09
61251169,1897,1,212750,245896,1.28,0.13,9.90,-0.03,-0.01,-0.00,32.09
61291169,1888,1,212907,246324,1.28,0.15,9.91,-0.03,-0.01,-0.00,32.09
61331169,1899,1,213084,246864,1.28,0.14,9.92,-0.03,-0.01,-0.00,32.09
61371170,1866,1,213235,246288,1.28,0.13,9.92,-0.03,-0.01,-0.00,32.09
61411855,1871,1,212746,244717,1.28,0.15,9.94,-0.03,-0.01,-0.00,32.05
61450169,1915,1,212311,243922,1.27,0.14,9.93,-0.03,-0.01,-0.00,32.05
61490169,1905,1,212250,244026,1.28,0.13,9.90,-0.03,-0.01,-0.00,32.05
61530169,1904,1,212372,244192,1.28,0.13,9.94,-0.03,-0.01,-0.00,32.05
61570169,1921,1,212418,244418,1.28,0.15,9.93,-0.03,-0.01,-0.00,32.05
61610170,1929,1,212568,244884,1.28,0.14,9.90,-0.03,-0.01,-0.00,32.05
61650169,1907,1,212695,245131,1.27,0.14,9.90,-0.03,-0.01,-0.00,32.05
