timestamp_us,ecg,leads,ir,red,accX,accY,accZ,gyroX,gyroY,gyroZ,temp
1918486,1776,1,199830,233249,0.00,0.00,0.00,0.00,0.00,0.00,0.00
1948957,1498,1,199414,231825,0.49,-0.84,9.73,-0.03,-0.01,-0.00,31.81
1989198,1336,1,198885,230491,0.49,-0.83,9.94,-0.03,-0.01,-0.00,31.81
2029187,1241,1,198611,230368,0.51,-0.87,9.94,-0.03,-0.01,-0.00,31.81
2069191,1184,1,198689,230535,0.51,-0.86,9.96,-0.03,-0.01,-0.01,31.81
2109188,1213,1,198613,230153,0.48,-0.89,9.98,-0.03,-0.01,-0.00,31.81
2149190,1232,1,198374,229487,0.49,-0.85,9.99,-0.03,-0.01,-0.00,31.81
2189187,1289,1,198063,228825,0.53,-0.82,9.95,-0.03,-0.01,-0.00,31.81
2229190,1326,1,197973,228765,0.50,-0.88,9.96,-0.03,-0.01,-0.01,31.81
2269187,1375,1,197965,229062,0.49,-0.85,9.97,-0.04,-0.01,-0.01,31.81
2309190,1468,1,197971,229560,0.51,-0.85,9.95,-0.04,-0.01,-0.01,31.81
2349187,1520,1,198051,229974,0.51,-0.85,9.96,-0.03,-0.01,-0.01,31.81
2389190,1535,1,198027,230150,0.47,-0.86,9.99,-0.03,-0.01,-0.00,31.81
2429187,1570,1,198030,230156,0.50,-0.88,9.96,-0.03,-0.01,-0.00,31.81
2469190,1675,1,197945,229934,0.52,-0.85,9.95,-0.04,-0.01,-0.00,31.81
2509187,1727,1,197797,229354,0.47,-0.85,9.98,-0.04,-0.01,-0.01,31.81
2549191,1766,1,197661,229158,0.50,-0.87,9.94,-0.04,-0.01,-0.00,31.81
2589187,1813,1,197646,229298,0.52,-0.89,9.95,-0.04,-0.00,-0.01,31.81
2629191,1839,1,197563,229580,0.47,-0.85,9.98,-0.04,-0.01,-0.01,31.81
2669187,1920,1,197699,229833,0.48,-0.85,9.99,-0.03,-0.01,-0.01,31.81
2709190,2047,1,197776,229738,0.51,-0.87,9.96,-0.03,-0.01,-0.00,31.81
2749187,1866,1,197654,229457,0.51,-0.87,9.98,-0.02,-0.00,-0.00,31.81
2789191,1840,1,197578,228971,0.47,-0.85,9.98,-0.03,-0.01,-0.00,31.81
2829188,2007,1,197322,228328,0.48,-0.83,9.96,-0.03,-0.02,-0.00,31.81
2869190,1792,1,197148,228100,0.49,-0.85,9.96,-0.04,-0.02,-0.00,31.81
2909187,1987,1,197351,228877,0.52,-0.85,9.96,-0.04,-0.02,-0.00,31.81
2949190,2113,1,197624,229841,0.51,-0.84,9.96,-0.04,-0.01,-0.00,31.81
2989873,2199,1,197948,230558,0.51,-0.86,9.96,-0.03,-0.01,-0.01,31.83
3028215,2214,1,198024,230484,0.47,-0.87,9.98,-0.03,-0.01,-0.00,31.83
3068187,2304,1,197896,229808,0.48,-0.85,9.95,-0.03,-0.01,-0.00,31.83
3108190,2270,1,197621,228540,0.51,-0.83,9.96,-0.03,-0.01,-0.00,31.83
3148187,2266,1,197168,227369,0.48,-0.84,9.95,-0.03,-0.01,-0.00,31.83
3188190,2243,1,197101,227433,0.47,-0.84,9.94,-0.03,-0.01,-0.00,31.83
3228187,2192,1,197154,227592,0.52,-0.88,9.96,-0.03,-0.01,-0.00,31.83
3268191,2124,1,197311,228276,0.49,-0.88,9.96,-0.03,-0.01,-0.00,31.83
3308186,2128,1,197643,228873,0.50,-0.84,9.97,-0.04,-0.01,-0.01,31.83
3349190,2160,1,197827,229184,0.49,-0.83,10.00,-0.04,-0.01,-0.00,31.83
3389187,2173,1,198088,229818,0.51,-0.86,9.94,-0.03,-0.01,-0.00,31.83
3429190,2245,1,198317,230558,0.50,-0.87,9.99,-0.03,-0.01,-0.00,31.83
3469187,2315,1,198583,231180,0.51,-0.84,9.97,-0.03,-0.01,-0.01,31.83
3509190,2359,1,198814,231833,0.45,-0.83,9.94,-0.03,-0.01,-0.01,31.83
3549188,2323,1,198996,232303,0.49,-0.85,9.95,-0.03,-0.01,-0.00,31.83
3589190,2359,1,199303,233004,0.52,-0.85,9.96,-0.03,-0.01,-0.00,31.83
3629187,2339,1,199670,234266,0.48,-0.84,9.97,-0.03,-0.01,-0.01,31.83
3669190,2336,1,199938,234247,0.49,-0.83,9.95,-0.04,-0.01,-0.01,31.83
3709187,2285,1,199726,233524,0.49,-0.84,9.95,-0.03,-0.01,-0.00,31.83
3749191,2297,1,199592,233267,0.50,-0.87,9.94,-0.03,-0.01,-0.01,31.83
3787187,2240,1,199430,233331,0.49,-0.88,9.94,-0.03,-0.01,-0.00,31.83
3827190,2293,1,199461,233546,0.49,-0.81,9.96,-0.03,-0.01,-0.01,31.83
3867188,2225,1,199699,234192,0.50,-0.84,9.95,-0.03,-0.02,-0.00,31.83
3907190,2174,1,200011,234840,0.50,-0.88,9.93,-0.04,-0.01,-0.00,31.83
3947194,2127,1,200167,235286,0.51,-0.86,9.94,-0.04,-0.01,-0.00,31.83
3987191,2070,1,200224,235662,0.54,-0.83,9.95,-0.03,-0.01,-0.01,31.83
4027881,2064,1,200296,236048,0.46,-0.84,9.94,-0.03,-0.01,-0.01,31.83
4068190,1984,1,200424,236449,0.49,-0.85,9.96,-0.03,-0.01,-0.00,31.83
4108187,1847,1,200558,237031,0.53,-0.88,9.94,-0.03,-0.01,-0.01,31.83
4148213,1790,1,200721,237319,0.49,-0.84,9.94,-0.03,-0.01,-0.00,31.83
4188187,1506,1,200817,237508,0.47,-0.86,9.96,-0.03,-0.01,-0.00,31.83
4228190,1511,1,200842,237323,0.52,-0.87,9.97,-0.03,-0.01,-0.00,31.83
4268188,1392,1,200679,236409,0.50,-0.86,9.96,-0.03,-0.01,-0.00,31.83
4308190,1168,1,200376,235970,0.47,-0.84,9.95,-0.03,-0.01,-0.00,31.83
4348188,1366,1,200276,235793,0.51,-0.85,9.96,-0.03,-0.01,-0.00,31.83
4387190,1145,1,200217,235828,0.50,-0.86,9.96,-0.03,-0.01,-0.00,31.83
4427187,1379,1,200202,235998,0.50,-0.89,9.97,-0.03,-0.01,-0.01,31.83
4467190,1673,1,200289,236149,0.50,-0.84,9.96,-0.03,-0.01,-0.00,31.83
4507187,1895,1,200240,236023,0.51,-0.83,9.96,-0.03,-0.01,-0.00,31.83
4547191,1993,1,200172,235858,0.49,-0.86,9.95,-0.03,-0.01,-0.00,31.83
4587188,2105,1,200081,235833,0.50,-0.84,9.98,-0.03,-0.01,-0.00,31.83
4627191,2181,1,200116,235756,0.51,-0.84,9.95,-0.03,-0.01,-0.00,31.83
4667187,2354,1,200127,235687,0.50,-0.85,9.94,-0.03,-0.01,-0.00,31.83
4707191,2374,1,200078,235571,0.47,-0.87,9.97,-0.03,-0.01,-0.00,31.83
4747188,2432,1,200048,235476,0.49,-0.84,9.97,-0.03,-0.01,-0.00,31.83
4787190,2506,1,200007,235227,0.52,-0.86,9.98,-0.03,-0.01,-0.00,31.83
4827188,2352,1,199844,235186,0.47,-0.84,9.94,-0.04,-0.01,-0.00,31.83
4867191,2158,1,199767,234894,0.49,-0.85,9.95,-0.03,-0.01,-0.00,31.83
4907188,2070,1,199721,234714,0.51,-0.86,9.95,-0.03,-0.01,-0.00,31.83
4947190,1857,1,199723,234713,0.49,-0.86,9.96,-0.03,-0.01,-0.01,31.83
4987187,1783,1,199728,234832,0.49,-0.85,9.95,-0.03,-0.01,-0.01,31.83
5027191,1734,1,199744,235101,0.53,-0.86,9.96,-0.04,-0.01,-0.01,31.83
5067874,1242,1,199729,235278,0.51,-0.86,9.97,-0.04,-0.01,-0.01,31.99
5108191,1397,1,199750,235307,0.50,-0.85,9.97,-0.03,-0.01,-0.01,31.99
5148187,1328,1,199488,234538,0.52,-0.88,9.97,-0.02,-0.00,-0.00,31.99
5188191,1418,1,199092,234160,0.48,-0.84,9.92,-0.02,-0.00,-0.00,31.99
5228186,1495,1,199128,233993,0.48,-0.86,9.97,-0.03,-0.01,-0.00,31.99
5268190,1786,1,198995,233381,0.52,-0.84,9.97,-0.03,-0.01,-0.00,31.99
5308188,1723,1,198713,233021,0.49,-0.83,9.96,-0.03,-0.00,-0.00,31.99
5348191,1827,1,198551,232896,0.52,-0.85,9.93,-0.03,0.01,-0.01,31.99
5387168,2011,1,198567,233411,0.48,-0.81,9.94,-0.02,0.01,-0.01,31.99
5427171,2001,1,198685,233683,0.46,-0.81,10.00,-0.03,0.00,-0.01,31.99
5467168,2090,1,198778,233532,0.47,-0.85,9.96,-0.04,-0.01,-0.01,31.99
5507191,1962,1,198592,233219,0.49,-0.83,9.94,-0.03,-0.01,-0.00,31.99
5547188,1910,1,198368,232641,0.48,-0.85,9.96,-0.04,-0.01,-0.01,31.99
5587225,1942,1,197394,229664,0.48,-0.85,9.97,-0.03,0.00,-0.00,31.99
5627168,1876,1,195890,227687,0.46,-0.83,9.96,-0.03,0.00,-0.00,31.99
5667171,1831,1,195223,226145,0.46,-0.81,9.99,-0.04,-0.02,-0.00,31.99
5707187,1838,1,194686,225461,0.48,-0.83,9.99,-0.04,-0.02,-0.00,31.99
5747191,1810,1,194436,224889,0.47,-0.85,9.94,-0.04,-0.02,-0.01,31.99
5787224,1502,1,194223,224004,0.45,-0.84,10.01,-0.04,-0.02,-0.00,31.99
5827191,1651,1,193906,223455,0.49,-0.82,9.94,-0.04,-0.01,-0.00,31.99
5867187,1729,1,193933,223830,0.49,-0.85,9.96,-0.04,-0.01,-0.00,31.99
5907191,1519,1,194368,225097,0.49,-0.84,9.96,-0.03,-0.01,-0.01,31.99
5947188,2073,1,195039,226119,0.49,-0.85,9.96,-0.04,-0.02,-0.01,31.99
5987191,1712,1,195454,227242,0.48,-0.83,9.99,-0.04,-0.01,-0.01,31.99
6027188,1572,1,195960,229165,0.51,-0.84,9.94,-0.03,-0.00,-0.00,31.99
6067191,1627,1,197075,231601,0.50,-0.83,9.93,-0.03,-0.01,-0.00,31.99
6107874,1633,1,197674,232453,0.49,-0.82,9.96,-0.04,-0.01,-0.01,32.05
6148191,1830,1,197878,232745,0.48,-0.85,9.96,-0.04,-0.01,-0.01,32.05
6188188,1730,1,198083,233585,0.47,-0.85,9.97,-0.03,-0.01,-0.00,32.05
6228191,1535,1,198476,234203,0.51,-0.85,9.99,-0.03,-0.01,-0.00,32.05
6268187,1501,1,198579,234203,0.48,-0.85,9.97,-0.03,-0.01,-0.00,32.05
6308191,1394,1,198351,233586,0.48,-0.82,9.96,-0.03,0.00,-0.01,32.05
6348168,2000,1,197828,232765,0.48,-0.84,9.96,-0.02,0.00,-0.01,32.05
6388170,1344,1,197209,231533,0.51,-0.85,9.97,-0.03,-0.00,-0.01,32.05
6428187,1023,1,197025,231147,0.45,-0.82,9.95,-0.02,-0.01,-0.00,32.05
6468191,1487,1,196529,229492,0.44,-0.79,9.96,-0.02,-0.01,-0.00,32.05
6508188,1392,1,196011,228934,0.50,-0.81,9.93,-0.02,0.00,-0.00,32.05
6548171,1699,1,196167,229423,0.47,-0.84,9.94,-0.04,0.00,-0.01,32.05
6588168,1663,1,196104,229135,0.45,-0.82,9.97,-0.04,0.01,-0.02,32.05
6628170,1433,1,195801,229304,0.44,-0.80,9.99,-0.03,-0.00,-0.01,32.05
6668187,1514,1,196018,230435,0.44,-0.80,9.97,-0.03,-0.00,-0.01,32.05
6708190,1663,1,196382,231086,0.40,-0.81,10.01,-0.03,-0.01,-0.01,32.05
6748187,1597,1,196632,231476,0.45,-0.80,9.96,-0.04,-0.02,-0.00,32.05
6786191,1509,1,196847,231898,0.48,-0.81,9.96,-0.04,-0.01,-0.00,32.05
6826188,1556,1,196752,231762,0.42,-0.82,9.98,-0.03,-0.01,-0.00,32.05
6866191,1667,1,196862,232187,0.42,-0.80,9.95,-0.04,-0.02,-0.00,32.05
6906187,1809,1,197161,232566,0.48,-0.79,9.99,-0.04,-0.01,-0.00,32.05
6946191,1747,1,197004,231734,0.47,-0.80,9.97,-0.03,-0.01,-0.00,32.05
6986187,1897,1,196604,231932,0.43,-0.82,9.97,-0.03,-0.00,-0.01,32.05
7026194,1741,1,197002,232795,0.45,-0.81,9.99,-0.04,-0.01,-0.00,32.05
7066187,1751,1,197379,233451,0.46,-0.79,9.98,-0.04,-0.02,-0.00,32.05
7106191,1870,1,197641,234260,0.45,-0.84,9.94,-0.04,-0.00,-0.01,32.05
7146874,1872,1,197894,235158,0.43,-0.83,10.00,-0.03,-0.01,-0.01,32.35
7187191,1757,1,198514,236298,0.45,-0.81,9.97,-0.04,-0.02,-0.01,32.35
7227204,1872,1,199091,237818,0.45,-0.82,9.96,-0.04,-0.02,-0.01,32.35
7267191,1895,1,200009,240101,0.43,-0.80,9.98,-0.04,-0.03,-0.00,32.35
7307187,1654,1,200713,241146,0.46,-0.84,10.00,-0.04,-0.04,-0.00,32.35
7347191,1815,1,200894,241904,0.49,-0.85,9.93,-0.04,-0.03,-0.00,32.35
7387188,2295,1,201156,242399,0.47,-0.83,9.97,-0.03,-0.03,-0.00,32.35
7427213,1456,1,201240,242645,0.48,-0.82,9.95,-0.03,-0.01,-0.00,32.35
7467188,1899,1,201193,242378,0.46,-0.81,9.98,-0.03,-0.01,-0.00,32.35
7507191,1858,1,200983,241921,0.48,-0.84,9.96,-0.03,-0.02,-0.00,32.35
7547188,1719,1,200915,242037,0.52,-0.82,9.97,-0.03,-0.02,-0.00,32.35
7587190,2015,1,201071,242187,0.50,-0.84,9.96,-0.04,-0.02,-0.00,32.35
7627205,1855,1,200968,241369,0.49,-0.83,9.97,-0.04,-0.02,-0.00,32.35
7667191,1876,1,200814,240993,0.52,-0.84,9.97,-0.04,-0.02,-0.00,32.35
7707188,2257,1,200791,240934,0.51,-0.83,9.96,-0.03,-0.01,-0.00,32.35
7747191,2093,1,200774,240937,0.48,-0.83,9.94,-0.03,-0.01,-0.00,32.35
7787187,2021,1,200790,241062,0.52,-0.84,9.97,-0.03,-0.01,-0.00,32.35
7827191,1857,1,200810,241292,0.50,-0.83,9.95,-0.03,-0.01,-0.00,32.35
7867187,1763,1,200758,241269,0.51,-0.84,9.96,-0.03,-0.01,-0.00,32.35
7907191,1757,1,200682,241260,0.48,-0.86,10.00,-0.03,-0.01,-0.00,32.35
7947187,1725,1,200752,241209,0.49,-0.83,9.99,-0.03,-0.02,-0.00,32.35
7987191,1891,1,200872,241440,0.50,-0.84,9.97,-0.03,-0.02,-0.00,32.35
8027187,1648,1,201114,241657,0.53,-0.86,9.95,-0.03,-0.02,-0.00,32.35
8067190,1523,1,201169,241826,0.53,-0.81,9.94,-0.04,-0.01,-0.00,32.35
8107188,1712,1,201326,242039,0.52,-0.82,9.94,-0.04,-0.01,-0.00,32.35
8147878,1687,1,201200,241415,0.51,-0.84,9.98,-0.04,-0.01,-0.00,32.95
8186188,1648,1,200805,240586,0.50,-0.82,9.97,-0.03,-0.01,-0.00,32.95
8226191,1685,1,200624,240414,0.51,-0.85,9.95,-0.03,-0.01,-0.00,32.95
8266187,1795,1,200569,240407,0.53,-0.81,9.96,-0.03,-0.01,-0.00,32.95
8306191,1781,1,200539,240286,0.50,-0.85,9.97,-0.03,-0.01,-0.00,32.95
8346187,1618,1,200570,240549,0.53,-0.85,9.96,-0.03,-0.01,-0.00,32.95
8386191,1691,1,200783,240822,0.51,-0.82,9.99,-0.03,-0.01,-0.00,32.95
8426188,1469,1,200933,240976,0.50,-0.83,9.95,-0.03,-0.01,-0.00,32.95
8466191,1466,1,201084,241037,0.52,-0.84,9.96,-0.03,-0.01,-0.00,32.95
8506188,1917,1,201158,241055,0.50,-0.82,9.96,-0.03,-0.01,-0.00,32.95
8546191,1579,1,201223,241131,0.51,-0.83,9.96,-0.03,-0.01,-0.00,32.95
8586187,1808,1,201134,241198,0.51,-0.84,9.96,-0.04,-0.01,-0.00,32.95
8626191,1437,1,201140,241314,0.50,-0.84,9.99,-0.03,-0.01,-0.00,32.95
8666187,1672,1,201154,241345,0.49,-0.83,9.96,-0.03,-0.01,-0.01,32.95
8706191,1789,1,201012,240685,0.52,-0.83,9.95,-0.03,-0.01,-0.00,32.95
8746188,1951,1,200765,240271,0.51,-0.84,9.95,-0.03,-0.01,-0.01,32.95
8786191,1930,1,200701,240164,0.51,-0.84,9.95,-0.03,-0.01,-0.00,32.95
8826188,1963,1,200812,240251,0.49,-0.82,9.96,-0.03,-0.01,-0.00,32.95
8866203,1939,1,201174,240600,0.50,-0.82,9.95,-0.03,-0.02,0.00,32.95
8906168,2029,1,201522,240912,0.54,-0.84,9.97,-0.03,-0.01,-0.00,32.95
8946191,2064,1,201735,241314,0.51,-0.84,9.95,-0.03,-0.01,-0.00,32.95
8986188,1847,1,201881,241522,0.52,-0.81,9.97,-0.03,-0.01,-0.00,32.95
9026197,1772,1,202012,241654,0.53,-0.84,9.94,-0.03,-0.01,-0.00,32.95
9066205,1911,1,202013,241665,0.51,-0.83,9.98,-0.03,-0.01,-0.00,32.95
9106191,1873,1,202117,241784,0.52,-0.83,9.96,-0.03,-0.01,-0.00,32.95
9146188,1763,1,202275,241931,0.52,-0.84,9.94,-0.03,-0.01,-0.00,32.95
9186878,1798,1,202445,242160,0.51,-0.80,9.98,-0.03,-0.01,-0.00,32.35
9227187,1771,1,202734,242291,0.52,-0.85,9.93,-0.03,-0.01,-0.00,32.35
9267191,1767,1,202834,242015,0.53,-0.85,9.95,-0.03,-0.01,-0.00,32.35
9307188,1855,1,202774,241791,0.52,-0.83,9.96,-0.04,-0.01,-0.00,32.35
9347191,1527,1,202792,241870,0.53,-0.84,9.94,-0.03,-0.01,-0.00,32.35
9387188,2118,1,202826,241947,0.50,-0.83,9.99,-0.04,-0.01,-0.00,32.35
9427191,1918,1,202899,242250,0.52,-0.83,9.96,-0.04,-0.01,-0.00,32.35
9467188,1712,1,203101,242629,0.52,-0.82,9.96,-0.04,-0.01,-0.00,32.35
9505191,2021,1,203223,242848,0.52,-0.80,9.96,-0.04,-0.01,-0.00,32.35
9545187,1678,1,203272,243010,0.52,-0.84,9.96,-0.03,-0.01,-0.00,32.35
9585191,1760,1,203381,243104,0.51,-0.85,9.96,-0.03,-0.01,-0.00,32.35
9625188,1904,1,203466,243248,0.52,-0.84,9.97,-0.03,-0.01,-0.00,32.35
9665191,1773,1,203439,243278,0.51,-0.85,9.96,-0.03,-0.01,-0.00,32.35
9705188,1974,1,203456,243238,0.51,-0.84,9.96,-0.03,-0.01,-0.00,32.35
9745191,2136,1,203394,243149,0.51,-0.82,9.95,-0.03,-0.01,-0.00,32.35
9785188,2041,1,203408,242719,0.52,-0.85,9.95,-0.03,-0.01,-0.00,32.35
9825191,2069,1,203203,242143,0.52,-0.83,9.99,-0.03,-0.01,-0.00,32.35
9865188,2063,1,203213,241942,0.53,-0.82,9.98,-0.03,-0.02,-0.00,32.35
9905190,2097,1,203136,241941,0.54,-0.84,9.95,-0.04,-0.01,-0.01,32.35
9945188,2164,1,203113,241965,0.51,-0.84,9.96,-0.03,-0.01,-0.00,32.35
9985191,2138,1,203027,242233,0.51,-0.82,9.94,-0.04,-0.01,-0.01,32.35
10025197,2112,1,203059,242367,0.52,-0.85,9.96,-0.04,-0.01,-0.00,32.35
10065191,2035,1,203109,242391,0.52,-0.84,9.95,-0.04,-0.01,-0.00,32.35
10105191,2033,1,203048,242479,0.52,-0.85,9.99,-0.03,-0.02,-0.00,32.35
10145191,2017,1,203105,242640,0.55,-0.84,9.98,-0.04,-0.01,-0.00,32.35
10185191,1982,1,203165,242618,0.54,-0.85,9.96,-0.04,-0.01,-0.00,32.35
10225877,1920,1,203136,242631,0.50,-0.85,9.94,-0.03,-0.01,-0.00,32.09
10266187,1915,1,203100,242719,0.54,-0.83,9.96,-0.03,-0.01,-0.00,32.09
10306191,1872,1,203085,242853,0.52,-0.84,9.98,-0.03,-0.01,-0.00,32.09
10346188,1841,1,202976,242225,0.51,-0.86,9.94,-0.03,-0.01,-0.00,32.09
10386191,1791,1,202652,241748,0.51,-0.84,9.97,-0.03,-0.01,-0.00,32.09
10426188,1776,1,202560,241508,0.55,-0.84,9.97,-0.03,-0.01,-0.00,32.09
10466191,1789,1,202552,241402,0.52,-0.85,9.97,-0.03,-0.01,-0.00,32.09
10506191,1789,1,202529,241446,0.51,-0.83,9.96,-0.03,-0.01,-0.00,32.09
10546191,1794,1,202629,241802,0.55,-0.85,9.95,-0.04,-0.01,-0.00,32.09
10586190,1751,1,202871,242012,0.52,-0.85,9.95,-0.04,-0.01,-0.00,32.09
10626190,1782,1,202879,242159,0.52,-0.84,10.00,-0.03,-0.01,-0.01,32.09
10666188,1769,1,202898,242109,0.54,-0.86,9.96,-0.03,-0.01,-0.01,32.09
10706191,1766,1,202985,242148,0.54,-0.84,9.96,-0.03,-0.01,-0.00,32.09
10746188,1776,1,202941,242181,0.51,-0.85,9.95,-0.03,-0.01,-0.01,32.09
10786191,1765,1,202923,242313,0.52,-0.83,9.97,-0.03,-0.01,-0.00,32.09
10826188,1835,1,203025,242397,0.54,-0.83,9.96,-0.03,-0.01,-0.00,32.09
10866191,1818,1,203056,242489,0.54,-0.85,9.96,-0.03,-0.01,-0.00,32.09
10906197,1840,1,203013,242018,0.52,-0.83,9.95,-0.03,-0.01,-0.00,32.09
10946191,1926,1,202860,241705,0.54,-0.84,9.97,-0.03,-0.01,-0.00,32.09
10986191,1825,1,202789,241553,0.54,-0.85,9.95,-0.03,-0.01,-0.01,32.09
11026193,1849,1,202886,241664,0.53,-0.84,9.97,-0.03,-0.01,-0.00,32.09
11066191,1821,1,203044,241782,0.54,-0.84,9.95,-0.03,-0.01,-0.00,32.09
11106191,1838,1,203172,242015,0.56,-0.81,9.95,-0.03,-0.01,-0.00,32.09
11146188,1759,1,203201,242158,0.52,-0.84,9.95,-0.03,-0.01,-0.00,32.09
11186191,1841,1,203259,242157,0.54,-0.85,9.96,-0.03,-0.01,-0.00,32.09
11226877,1807,1,203252,242306,0.54,-0.84,9.94,-0.03,-0.01,-0.01,31.91
11265191,1840,1,203373,242295,0.52,-0.87,9.94,-0.03,-0.01,-0.00,31.91
11305191,1808,1,203290,242385,0.53,-0.83,9.94,-0.03,-0.01,-0.00,31.91
11345190,1822,1,203393,242394,0.56,-0.85,9.94,-0.03,-0.01,-0.01,31.91
11385191,1793,1,203430,242453,0.53,-0.86,9.94,-0.03,-0.01,-0.00,31.91
11425191,1797,1,203391,242340,0.53,-0.85,9.97,-0.03,-0.01,-0.00,31.91
11465191,1802,1,203176,241859,0.55,-0.85,9.96,-0.03,-0.01,-0.00,31.91
11505190,1798,1,203104,241458,0.53,-0.84,9.96,-0.03,-0.01,-0.00,31.91
11545187,1791,1,203096,241446,0.52,-0.86,9.96,-0.03,-0.01,-0.00,31.91
11585190,1795,1,203135,241525,0.53,-0.83,9.96,-0.03,-0.01,-0.00,31.91
11625191,1823,1,203189,241826,0.55,-0.84,9.94,-0.03,-0.01,-0.00,31.91
11665191,1793,1,203310,242010,0.52,-0.85,9.96,-0.03,-0.01,-0.00,31.91
11705191,1791,1,203372,242284,0.54,-0.83,9.96,-0.03,-0.01,-0.00,31.91
11745191,1773,1,203456,242441,0.55,-0.83,9.96,-0.03,-0.01,-0.00,31.91
11785191,1806,1,203563,242497,0.54,-0.84,9.99,-0.04,-0.01,-0.00,31.91
11825191,1803,1,203521,242669,0.55,-0.82,9.97,-0.03,-0.01,-0.00,31.91
11865191,1791,1,203618,242867,0.55,-0.84,9.96,-0.03,-0.01,-0.00,31.91
11905191,1808,1,203774,242993,0.53,-0.84,9.96,-0.03,-0.01,-0.00,31.91
11945191,1776,1,203856,243140,0.52,-0.85,9.97,-0.03,-0.01,-0.00,31.91
11985191,1791,1,203865,242759,0.54,-0.83,9.99,-0.03,-0.01,-0.00,31.91
12025196,1776,1,203713,242277,0.53,-0.84,9.95,-0.03,-0.01,-0.00,31.91
12065190,1753,1,203639,242169,0.55,-0.84,9.96,-0.03,-0.01,-0.00,31.91
12105191,1806,1,203631,242173,0.54,-0.85,9.97,-0.03,-0.01,-0.00,31.91
12145191,1802,1,203700,242352,0.56,-0.83,9.97,-0.03,-0.01,-0.00,31.91
12185188,1796,1,203666,242704,0.53,-0.87,9.95,-0.03,-0.01,-0.00,31.91
12225191,1769,1,203773,242932,0.55,-0.85,9.96,-0.03,-0.01,-0.00,31.91
12265875,1791,1,203835,243083,0.54,-0.86,9.97,-0.03,-0.01,-0.00,31.97
12306190,1776,1,203931,243147,0.54,-0.83,9.95,-0.03,-0.01,-0.01,31.97
12346231,1770,1,203955,243332,0.55,-0.85,10.00,-0.03,-0.01,-0.00,31.97
12386191,1831,1,203954,243375,0.53,-0.83,9.99,-0.03,-0.01,-0.01,31.97
12424191,1887,1,204030,243500,0.56,-0.84,9.98,-0.03,-0.01,-0.00,31.97
12464191,1807,1,204125,243581,0.54,-0.84,9.98,-0.03,-0.01,-0.00,31.97
12504191,1847,1,204126,243517,0.56,-0.84,9.95,-0.03,-0.01,-0.00,31.97
12544191,1803,1,204016,242945,0.54,-0.84,9.95,-0.03,-0.01,-0.00,31.97
12584191,1877,1,203862,242541,0.53,-0.83,9.95,-0.03,-0.01,-0.00,31.97
12624190,1842,1,203724,242413,0.54,-0.87,9.97,-0.03,-0.01,-0.00,31.97
12664191,1834,1,203837,242387,0.55,-0.85,9.98,-0.03,-0.01,-0.00,31.97
12704191,1823,1,203839,242493,0.54,-0.84,9.97,-0.03,-0.01,-0.00,31.97
12744188,1835,1,203968,242857,0.52,-0.86,10.00,-0.03,-0.01,-0.00,31.97
12784191,1831,1,204049,243009,0.53,-0.86,9.96,-0.03,-0.01,-0.00,31.97
12824191,1795,1,204109,243113,0.53,-0.84,9.96,-0.03,-0.01,-0.00,31.97
12864191,1783,1,204125,243201,0.56,-0.86,9.94,-0.03,-0.01,-0.01,31.97
12904191,1842,1,204160,243326,0.53,-0.85,9.96,-0.03,-0.01,-0.00,31.97
12944191,1825,1,204203,243361,0.53,-0.85,9.96,-0.03,-0.01,-0.00,31.97
12984191,1839,1,204295,243576,0.56,-0.84,9.94,-0.03,-0.01,-0.00,31.97
13024217,1808,1,204314,243713,0.55,-0.85,9.97,-0.03,-0.01,-0.00,31.97
13064191,1792,1,204314,243297,0.53,-0.86,9.96,-0.03,-0.01,-0.00,31.97
13104191,1828,1,204151,242707,0.55,-0.85,9.96,-0.03,-0.01,-0.00,31.97
13144191,1793,1,204063,242500,0.54,-0.86,9.95,-0.03,-0.01,-0.00,31.97
13184191,1785,1,204009,242463,0.53,-0.83,9.98,-0.03,-0.01,-0.00,31.97
13224188,1824,1,204002,242537,0.57,-0.84,9.95,-0.03,-0.01,-0.00,31.97
13264191,1799,1,204028,242776,0.55,-0.85,9.96,-0.03,-0.01,-0.01,31.97
13304877,1756,1,203993,242975,0.54,-0.86,9.96,-0.03,-0.01,-0.00,31.85
13345191,1805,1,204086,243030,0.53,-0.83,9.95,-0.03,-0.01,-0.00,31.85
13385188,1760,1,204104,243082,0.55,-0.85,9.94,-0.03,-0.01,-0.00,31.85
13425191,1827,1,204124,243194,0.57,-0.85,9.95,-0.03,-0.01,-0.00,31.85
13465191,1815,1,204176,243301,0.56,-0.85,9.96,-0.03,-0.01,-0.00,31.85
13505191,1849,1,204257,243444,0.56,-0.85,9.94,-0.03,-0.01,-0.01,31.85
13545191,1814,1,204324,243547,0.53,-0.82,9.96,-0.03,-0.01,-0.00,31.85
13585191,1846,1,204354,243430,0.53,-0.85,9.95,-0.03,-0.01,-0.00,31.85
13625188,1785,1,204140,242738,0.55,-0.85,9.96,-0.03,-0.01,-0.00,31.85
13665191,1817,1,203916,242243,0.55,-0.83,9.98,-0.03,-0.01,-0.00,31.85
13705188,1831,1,203788,242064,0.53,-0.85,9.96,-0.03,-0.01,-0.00,31.85
13745191,1858,1,203807,242019,0.56,-0.84,9.98,-0.03,-0.01,-0.01,31.85
13785191,1838,1,203859,242117,0.55,-0.85,9.95,-0.03,-0.01,-0.00,31.85
13825190,1831,1,203916,242319,0.55,-0.85,9.96,-0.03,-0.01,-0.01,31.85
13865190,1809,1,203988,242434,0.53,-0.84,9.93,-0.03,-0.01,-0.00,31.85
13905190,1808,1,203987,242503,0.54,-0.83,9.96,-0.03,-0.01,-0.00,31.85
13945191,1856,1,204022,242495,0.54,-0.85,9.95,-0.03,-0.01,-0.00,31.85
13985197,1840,1,204078,242363,0.53,-0.84,9.94,-0.03,-0.01,-0.00,31.85
14025196,1802,1,203936,242337,0.57,-0.85,9.97,-0.03,-0.01,-0.00,31.85
14065190,1859,1,203870,242140,0.54,-0.85,9.96,-0.03,-0.01,-0.00,31.85
14105188,1815,1,203879,241985,0.52,-0.84,9.96,-0.03,-0.01,-0.00,31.85
14145191,1797,1,203845,241169,0.56,-0.85,9.94,-0.03,-0.01,-0.00,31.85
14185207,1761,1,203558,240087,0.56,-0.85,9.98,-0.03,-0.01,-0.00,31.85
14225191,1817,1,203248,239446,0.54,-0.85,9.97,-0.03,-0.01,-0.00,31.85
14265191,1854,1,203156,239286,0.57,-0.85,9.94,-0.03,-0.01,-0.00,31.85
14305877,1754,1,203173,239465,0.55,-0.85,9.98,-0.03,-0.01,-0.00,31.91
14344191,1783,1,203328,239804,0.55,-0.83,9.97,-0.03,-0.01,-0.00,31.91
14384190,1922,1,203487,240151,0.54,-0.83,9.95,-0.03,-0.01,-0.00,31.91
14424188,1897,1,203676,240419,0.53,-0.86,9.98,-0.03,-0.01,-0.00,31.91
14464191,1904,1,203784,240709,0.56,-0.85,9.95,-0.03,-0.01,-0.00,31.91
14504191,1946,1,203827,240983,0.56,-0.82,9.98,-0.03,-0.01,-0.00,31.91
14544191,1949,1,203915,241149,0.54,-0.82,9.95,-0.03,-0.01,-0.00,31.91
14584188,1883,1,204032,241204,0.55,-0.87,9.95,-0.03,-0.01,-0.00,31.91
14624190,1951,1,204104,241470,0.55,-0.85,9.96,-0.03,-0.01,-0.00,31.91
14664191,2032,1,204149,241391,0.53,-0.82,9.96,-0.03,-0.01,-0.00,31.91
14704191,1901,1,203990,240452,0.56,-0.84,9.98,-0.03,-0.01,-0.00,31.91
14744188,1915,1,203640,239517,0.55,-0.85,9.95,-0.03,-0.01,-0.00,31.91
14784191,1825,1,203408,238993,0.54,-0.85,9.96,-0.03,-0.01,-0.00,31.91
14824191,1920,1,203329,238974,0.55,-0.85,9.94,-0.03,-0.01,-0.01,31.91
14864190,1862,1,203356,238970,0.54,-0.85,9.96,-0.03,-0.01,-0.00,31.91
14904188,1833,1,203387,239321,0.54,-0.84,9.95,-0.03,-0.01,-0.00,31.91
14944191,1831,1,203479,239589,0.54,-0.85,9.97,-0.03,-0.01,-0.00,31.91
14984190,1839,1,203620,239625,0.55,-0.83,9.96,-0.03,-0.01,-0.00,31.91
15024214,1682,1,203586,239660,0.55,-0.84,9.95,-0.03,-0.01,-0.00,31.91
15064187,1778,1,203587,239610,0.55,-0.84,9.97,-0.03,-0.01,-0.00,31.91
15104191,1738,1,203511,239698,0.56,-0.85,9.97,-0.03,-0.01,-0.00,31.91
15144187,1802,1,203518,239777,0.55,-0.84,9.95,-0.03,-0.01,-0.00,31.91
15184191,1781,1,203393,239663,0.55,-0.84,9.95,-0.03,-0.01,-0.00,31.91
15224191,1811,1,203126,239558,0.54,-0.84,9.95,-0.03,-0.00,-0.00,31.91
15264191,1747,1,202828,238828,0.54,-0.85,9.97,-0.03,-0.00,-0.00,31.91
15304187,1728,1,202066,237137,0.55,-0.85,9.97,-0.03,-0.00,-0.00,31.91
15344877,1677,1,201000,235348,0.54,-0.84,9.95,-0.03,-0.01,-0.01,31.75
15383191,1678,1,200466,234622,0.53,-0.82,9.96,-0.03,-0.01,-0.00,31.75
15424191,1671,1,200085,234318,0.53,-0.85,9.95,-0.03,-0.01,-0.00,31.75
15464188,1965,1,199917,234318,0.54,-0.86,9.97,-0.03,-0.01,-0.00,31.75
15504191,1727,1,199853,234265,0.53,-0.84,9.95,-0.03,-0.01,-0.00,31.75
15544190,1604,1,199828,234063,0.53,-0.84,9.98,-0.03,-0.01,-0.00,31.75
15584191,1602,1,199620,233927,0.53,-0.85,9.94,-0.03,-0.01,-0.00,31.75
15624204,1722,1,199545,233893,0.54,-0.83,9.97,-0.03,-0.01,-0.00,31.75
15664191,1659,1,199543,234048,0.54,-0.84,9.95,-0.03,-0.01,-0.01,31.75
15704190,1810,1,199623,234186,0.52,-0.84,9.98,-0.03,-0.01,-0.00,31.75
15744191,1737,1,199571,234221,0.53,-0.87,9.97,-0.03,-0.01,-0.00,31.75
15784191,1575,1,199579,234101,0.54,-0.84,9.97,-0.03,-0.01,-0.01,31.75
15824228,1920,1,199536,234150,0.52,-0.85,9.97,-0.03,-0.01,-0.00,31.75
15864191,2037,1,199683,234252,0.52,-0.84,9.97,-0.03,-0.01,-0.00,31.75
15904191,1953,1,199773,234299,0.52,-0.85,9.96,-0.03,-0.01,-0.00,31.75
15944191,2032,1,199733,233323,0.53,-0.85,9.96,-0.03,-0.01,-0.00,31.75
15984191,1952,1,199393,232525,0.54,-0.86,9.95,-0.03,-0.01,-0.00,31.75
16024243,1913,1,199269,232365,0.54,-0.85,9.98,-0.03,-0.01,-0.00,31.75
16064191,1897,1,199338,232558,0.54,-0.84,9.96,-0.03,-0.01,-0.00,31.75
16104188,1904,1,199489,232920,0.56,-0.86,9.95,-0.03,-0.01,-0.00,31.75
16144191,1933,1,199754,233290,0.53,-0.84,9.96,-0.03,-0.01,-0.00,31.75
16184191,1965,1,199913,233588,0.54,-0.85,9.98,-0.03,-0.01,-0.01,31.75
16224191,1904,1,200002,235048,0.52,-0.82,9.96,-0.03,-0.00,-0.01,31.75
16264191,1936,1,200230,237444,0.58,-0.85,9.89,-0.06,0.02,-0.01,31.75
16304170,1929,1,199979,237739,0.43,-0.82,10.12,-0.03,0.01,-0.02,31.75
16344171,1965,1,199171,235924,0.47,-0.81,9.99,-0.01,-0.02,-0.00,31.75
16384877,1962,1,198890,235464,0.51,-0.83,9.91,-0.02,-0.03,0.00,32.35
16423168,1932,1,199102,235761,0.53,-0.84,9.95,-0.04,-0.02,-0.00,32.35
16464191,1920,1,199360,236050,0.52,-0.86,9.96,-0.04,-0.02,-0.00,32.35
16504188,1895,1,199582,236430,0.51,-0.81,9.96,-0.04,-0.01,-0.00,32.35
16544190,1887,1,199633,236866,0.55,-0.83,9.93,-0.04,-0.01,-0.00,32.35
16584190,1860,1,199638,237147,0.52,-0.84,9.95,-0.04,-0.01,-0.00,32.35
16624190,1891,1,199626,236561,0.52,-0.87,9.96,-0.03,-0.02,-0.00,32.35
16664188,1894,1,199333,235246,0.52,-0.83,9.99,-0.03,-0.01,-0.00,32.35
16704191,1886,1,199124,234142,0.52,-0.81,10.00,-0.03,-0.02,-0.00,32.35
16744187,1863,1,199077,233530,0.51,-0.84,9.94,-0.03,-0.01,-0.00,32.35
16784191,1879,1,199265,233333,0.53,-0.86,9.96,-0.04,-0.01,-0.00,32.35
16824190,1875,1,199433,233538,0.51,-0.85,9.97,-0.04,-0.01,-0.00,32.35
16864190,1843,1,199541,233922,0.51,-0.80,10.01,-0.04,-0.01,-0.01,32.35
16904187,1872,1,199736,234442,0.55,-0.81,9.91,-0.03,-0.01,-0.00,32.35
16944191,1843,1,199868,234743,0.55,-0.85,9.95,-0.04,-0.01,-0.00,32.35
16984190,1838,1,200063,235110,0.52,-0.85,9.99,-0.03,-0.01,-0.00,32.35
17024217,1834,1,200288,235530,0.52,-0.84,9.96,-0.03,-0.01,-0.01,32.35
17064191,1828,1,200486,236043,0.53,-0.84,9.94,-0.03,-0.01,-0.00,32.35
17104190,1821,1,200739,236679,0.52,-0.86,9.95,-0.03,-0.01,-0.00,32.35
17144188,1823,1,200987,237338,0.55,-0.83,9.95,-0.04,-0.01,-0.00,32.35
17184191,1825,1,201070,237871,0.53,-0.83,9.95,-0.04,-0.01,-0.01,32.35
17224191,1815,1,200992,238234,0.51,-0.85,9.97,-0.04,-0.01,-0.00,32.35
17264190,1839,1,200994,238554,0.52,-0.85,9.95,-0.04,-0.01,-0.01,32.35
17304191,1782,1,200950,238669,0.54,-0.85,9.96,-0.03,-0.01,-0.00,32.35
17344190,1739,1,201060,238762,0.53,-0.83,9.98,-0.03,-0.02,-0.00,32.35
17384874,1747,1,201401,238557,0.53,-0.84,9.95,-0.03,-0.02,-0.00,32.03
17423191,1739,1,201472,237175,0.54,-0.86,9.96,-0.03,-0.02,0.00,32.03
17464168,1728,1,201226,236109,0.55,-0.85,9.96,-0.03,-0.01,-0.00,32.03
17504190,1755,1,201119,235628,0.53,-0.82,9.93,-0.04,-0.01,0.00,32.03
17544168,1734,1,201076,235389,0.54,-0.85,9.95,-0.03,-0.01,0.00,32.03
17584170,1773,1,201109,235329,0.56,-0.84,9.95,-0.03,-0.01,-0.00,32.03
17624187,1774,1,201118,235413,0.53,-0.84,9.94,-0.03,-0.01,-0.00,32.03
17664190,1764,1,201089,235560,0.52,-0.82,9.95,-0.04,-0.00,-0.01,32.03
17704190,1791,1,200874,235545,0.53,-0.82,9.96,-0.04,-0.00,-0.01,32.03
17744191,1783,1,200773,235808,0.54,-0.85,9.94,-0.04,-0.01,-0.01,32.03
17784190,1782,1,200814,236058,0.54,-0.84,9.90,-0.04,-0.01,-0.00,32.03
17824191,1778,1,200820,236265,0.52,-0.81,9.99,-0.04,-0.01,-0.00,32.03
17864191,1810,1,200900,236506,0.53,-0.84,9.97,-0.03,-0.01,-0.00,32.03
17904190,1827,1,201009,236752,0.53,-0.85,9.93,-0.03,-0.01,-0.00,32.03
17944190,1795,1,201086,236987,0.53,-0.85,9.98,-0.04,-0.01,-0.00,32.03
17984190,1811,1,201181,237191,0.53,-0.85,9.97,-0.03,-0.01,-0.00,32.03
18024212,1820,1,201171,237390,0.53,-0.83,9.98,-0.03,-0.01,-0.00,32.03
18064190,1808,1,201249,237576,0.55,-0.85,9.96,-0.03,-0.01,-0.01,32.03
18104190,1818,1,201323,237716,0.53,-0.86,9.97,-0.03,-0.01,-0.00,32.03
18144191,1835,1,201491,237760,0.53,-0.83,9.95,-0.03,-0.01,-0.00,32.03
18182190,1813,1,201412,236609,0.54,-0.82,9.97,-0.03,-0.01,-0.00,32.03
18222191,1826,1,201021,235183,0.54,-0.84,9.95,-0.03,-0.01,-0.00,32.03
18262191,1829,1,200722,234385,0.53,-0.86,9.96,-0.03,-0.01,-0.00,32.03
18302191,1827,1,200562,234124,0.51,-0.84,10.01,-0.03,-0.01,-0.00,32.03
18342191,1883,1,200651,234284,0.54,-0.85,9.95,-0.03,-0.01,-0.00,32.03
18382191,1803,1,200785,234695,0.52,-0.85,9.94,-0.03,-0.01,-0.00,32.03
18422877,1835,1,201015,235270,0.54,-0.84,9.97,-0.03,-0.01,-0.00,32.17
18463191,1813,1,201129,235612,0.53,-0.85,9.97,-0.03,-0.01,-0.00,32.17
18503190,1819,1,201339,235845,0.52,-0.82,9.97,-0.03,-0.01,-0.00,32.17
18543191,1810,1,201471,235954,0.53,-0.83,9.96,-0.03,-0.01,-0.00,32.17
18583191,1837,1,201635,236292,0.52,-0.85,9.96,-0.03,-0.01,-0.00,32.17
18623191,1823,1,201701,236496,0.55,-0.83,9.98,-0.03,-0.01,-0.00,32.17
18663187,1819,1,201822,236812,0.55,-0.85,9.94,-0.03,-0.01,-0.00,32.17
18703190,1813,1,201980,237108,0.53,-0.85,9.96,-0.03,-0.01,-0.00,32.17
18743190,1802,1,202029,237351,0.55,-0.84,9.95,-0.03,-0.01,-0.00,32.17
18783191,1808,1,202070,237630,0.55,-0.84,9.96,-0.03,-0.01,-0.00,32.17
18823187,1813,1,202190,237869,0.52,-0.84,9.94,-0.03,-0.01,-0.00,32.17
18863191,1811,1,202294,238122,0.55,-0.85,9.96,-0.03,-0.01,-0.00,32.17
18903190,1797,1,202379,238276,0.55,-0.86,9.95,-0.03,-0.01,-0.00,32.17
18943190,1815,1,202444,238594,0.52,-0.85,9.94,-0.03,-0.01,-0.00,32.17
18983190,1805,1,202409,237718,0.55,-0.86,9.96,-0.03,-0.01,-0.00,32.17
19023201,1791,1,201921,235959,0.53,-0.85,9.96,-0.03,-0.01,-0.00,32.17
19063187,1813,1,201468,235093,0.57,-0.85,9.97,-0.03,-0.01,-0.00,32.17
19103196,1797,1,201401,235027,0.51,-0.85,9.96,-0.03,-0.01,-0.00,32.17
19143190,1808,1,201471,235070,0.54,-0.84,9.96,-0.03,-0.01,-0.00,32.17
19183191,1808,1,201434,235268,0.53,-0.83,9.97,-0.03,-0.01,-0.00,32.17
19223188,1825,1,201563,235817,0.54,-0.84,9.95,-0.03,-0.01,-0.00,32.17
19263190,1804,1,201762,236074,0.54,-0.86,9.95,-0.03,-0.01,-0.00,32.17
19303213,1808,1,201793,236191,0.53,-0.83,9.98,-0.03,-0.01,-0.00,32.17
19343191,1811,1,201860,236419,0.53,-0.85,9.95,-0.03,-0.01,-0.00,32.17
19383191,1814,1,201925,236646,0.53,-0.85,9.96,-0.03,-0.01,-0.00,32.17
19423877,1817,1,202026,236824,0.56,-0.84,9.96,-0.03,-0.01,-0.00,32.53
19462190,1818,1,202095,237001,0.54,-0.83,9.94,-0.03,-0.01,-0.00,32.53
19502191,1841,1,202198,237117,0.54,-0.84,9.96,-0.03,-0.01,-0.00,32.53
19542188,1830,1,202263,237333,0.54,-0.85,9.98,-0.03,-0.01,-0.00,32.53
19582191,1797,1,202319,237464,0.55,-0.85,9.99,-0.03,-0.01,-0.00,32.53
19622191,1810,1,202390,237696,0.55,-0.83,9.96,-0.03,-0.01,-0.00,32.53
19662191,1803,1,202392,237877,0.53,-0.85,9.98,-0.03,-0.01,-0.00,32.53
19702191,1821,1,202552,238020,0.52,-0.85,9.97,-0.03,-0.01,-0.00,32.53
19742191,1804,1,202650,238260,0.53,-0.85,9.95,-0.03,-0.01,-0.00,32.53
19782191,1808,1,202652,238392,0.53,-0.83,9.96,-0.03,-0.01,-0.00,32.53
19822191,1808,1,202685,238484,0.55,-0.85,9.94,-0.03,-0.01,-0.00,32.53
19862191,1808,1,202827,238458,0.52,-0.82,9.96,-0.03,-0.01,-0.00,32.53
19902191,1808,1,202544,236805,0.55,-0.85,9.96,-0.03,-0.01,-0.00,32.53
19942191,1833,1,202123,234967,0.54,-0.84,9.94,-0.03,-0.01,-0.00,32.53
19982191,1808,1,201693,234056,0.53,-0.84,9.94,-0.03,-0.01,-0.00,32.53
20022191,1819,1,201685,233863,0.53,-0.84,9.96,-0.03,-0.01,-0.00,32.53
20062191,1831,1,201566,233811,0.55,-0.85,9.96,-0.03,-0.01,-0.00,32.53
20102188,1837,1,201577,234241,0.53,-0.84,9.97,-0.03,-0.01,-0.00,32.53
20142190,1821,1,201778,234623,0.53,-0.83,9.97,-0.03,-0.01,-0.00,32.53
20182188,1808,1,201854,234916,0.55,-0.83,9.95,-0.03,-0.01,-0.01,32.53
20222191,1821,1,201890,235200,0.53,-0.83,9.95,-0.04,-0.01,-0.01,32.53
20262191,1837,1,201897,235193,0.53,-0.86,9.95,-0.03,-0.01,-0.00,32.53
20302191,1808,1,201925,235241,0.53,-0.85,9.97,-0.03,-0.01,-0.00,32.53
20342191,1808,1,201946,235117,0.53,-0.84,9.96,-0.03,-0.01,-0.00,32.53
20382191,1794,1,202009,235097,0.54,-0.84,9.96,-0.03,-0.01,-0.00,32.53
20422188,1812,1,202282,235635,0.54,-0.84,9.96,-0.03,-0.01,-0.00,32.53
20462877,1809,1,202464,236184,0.54,-0.82,9.95,-0.03,-0.01,-0.00,32.39
20503188,1806,1,202575,236634,0.55,-0.83,9.94,-0.04,-0.01,-0.00,32.39
20543191,1818,1,202822,237195,0.53,-0.84,9.96,-0.04,-0.01,-0.00,32.39
20583188,1775,1,202832,237347,0.53,-0.85,9.97,-0.03,-0.01,-0.01,32.39
20623191,1799,1,203013,237655,0.54,-0.83,9.94,-0.03,-0.01,-0.00,32.39
20663188,1809,1,203035,238067,0.52,-0.83,9.96,-0.04,-0.01,-0.00,32.39
20703191,1779,1,203242,238574,0.56,-0.83,9.96,-0.03,-0.01,-0.01,32.39
20743194,1795,1,203294,238738,0.53,-0.86,9.99,-0.03,-0.01,-0.00,32.39
20783191,1805,1,203232,238119,0.51,-0.83,9.97,-0.03,-0.01,-0.00,32.39
20823191,1769,1,202871,235881,0.54,-0.84,9.97,-0.03,-0.01,-0.00,32.39
20863191,1806,1,202260,234700,0.55,-0.85,9.95,-0.03,-0.01,-0.00,32.39
20903188,1783,1,202010,234451,0.55,-0.82,9.95,-0.03,-0.01,-0.01,32.39
20943204,1792,1,202129,234759,0.54,-0.84,9.94,-0.03,-0.01,-0.00,32.39
20983188,1818,1,202202,235022,0.55,-0.85,9.96,-0.04,-0.01,-0.00,32.39
21023201,1810,1,202320,235455,0.52,-0.84,9.95,-0.03,-0.01,-0.00,32.39
21061191,1803,1,202444,235856,0.54,-0.83,9.96,-0.03,-0.01,-0.00,32.39
21101191,1829,1,202651,236052,0.53,-0.84,9.97,-0.03,-0.01,-0.00,32.39
21141191,1841,1,202737,236299,0.54,-0.84,9.96,-0.03,-0.01,-0.00,32.39
21181191,1823,1,202736,236319,0.53,-0.85,9.94,-0.03,-0.01,-0.01,32.39
21221190,1830,1,202884,236705,0.54,-0.84,9.97,-0.03,-0.01,-0.00,32.39
21261191,1849,1,202988,237081,0.55,-0.85,9.96,-0.03,-0.01,-0.00,32.39
21301191,1841,1,203228,237385,0.55,-0.84,9.97,-0.04,-0.01,-0.00,32.39
21341190,1851,1,203238,237458,0.52,-0.83,9.98,-0.03,-0.01,-0.00,32.39
21381191,1746,1,203244,237845,0.57,-0.84,9.96,-0.03,-0.01,-0.00,32.39
21421191,1867,1,203522,238238,0.55,-0.85,9.99,-0.04,-0.02,-0.01,32.39
21461190,1840,1,203638,238711,0.54,-0.84,9.98,-0.03,-0.01,-0.00,32.39
21501877,1808,1,203608,238985,0.56,-0.84,9.99,-0.03,-0.01,-0.00,32.21
21542191,1863,1,203701,239167,0.54,-0.84,9.96,-0.03,-0.01,-0.00,32.21
21582191,1823,1,203915,239399,0.55,-0.84,9.96,-0.03,-0.01,-0.00,32.21
21622190,1794,1,203914,239675,0.54,-0.83,9.96,-0.03,-0.01,-0.00,32.21
21662191,1840,1,203997,239663,0.55,-0.84,9.96,-0.03,-0.01,-0.00,32.21
21702191,1838,1,203731,238015,0.56,-0.85,9.95,-0.03,-0.01,-0.00,32.21
21742191,1802,1,203189,236412,0.53,-0.86,9.93,-0.03,-0.01,-0.00,32.21
21782191,1818,1,202864,235771,0.56,-0.82,9.97,-0.03,-0.01,-0.00,32.21
21822191,1780,1,202874,235934,0.55,-0.84,9.99,-0.03,-0.01,-0.00,32.21
21862190,1815,1,202850,236030,0.53,-0.85,9.98,-0.03,-0.01,-0.00,32.21
21902191,1833,1,203003,236415,0.53,-0.83,9.93,-0.03,-0.01,-0.00,32.21
21942191,1804,1,203052,236771,0.54,-0.85,9.97,-0.03,-0.01,-0.00,32.21
21982191,1794,1,203181,236907,0.53,-0.83,9.96,-0.03,-0.01,-0.01,32.21
22022191,1833,1,203047,236565,0.52,-0.82,9.96,-0.03,-0.01,-0.01,32.21
22062190,1788,1,203145,236706,0.56,-0.85,9.95,-0.03,-0.01,-0.00,32.21
22102187,1856,1,203180,237341,0.54,-0.83,9.96,-0.04,-0.01,-0.00,32.21
22142191,1786,1,203454,237979,0.57,-0.85,9.93,-0.04,-0.01,-0.01,32.21
22182190,1744,1,203395,238366,0.52,-0.84,9.96,-0.03,-0.01,-0.01,32.21
22222190,1821,1,203594,238786,0.54,-0.84,9.97,-0.03,-0.01,-0.00,32.21
22262190,1790,1,203624,238967,0.56,-0.85,9.99,-0.03,-0.01,-0.00,32.21
22302191,1813,1,203750,239012,0.52,-0.82,9.93,-0.03,-0.01,-0.00,32.21
22342191,1810,1,203831,239268,0.54,-0.85,9.95,-0.03,-0.01,-0.00,32.21
22382205,1813,1,203822,239339,0.54,-0.84,9.98,-0.03,-0.01,-0.00,32.21
22422190,1811,1,203842,239351,0.55,-0.85,9.99,-0.03,-0.01,-0.00,32.21
22462190,1782,1,204000,239821,0.53,-0.84,9.94,-0.03,-0.01,-0.00,32.21
22502877,1787,1,203981,240284,0.55,-0.84,9.95,-0.04,-0.01,-0.00,32.17
22541191,1840,1,204102,240658,0.54,-0.85,9.97,-0.04,-0.01,-0.01,32.17
22581221,1808,1,204043,240246,0.51,-0.85,9.94,-0.03,-0.01,-0.00,32.17
22621191,1840,1,203700,238158,0.55,-0.86,9.98,-0.03,-0.01,-0.00,32.17
22661190,1815,1,203162,236668,0.56,-0.82,9.94,-0.03,-0.01,-0.00,32.17
22701190,1795,1,202836,236087,0.52,-0.85,9.96,-0.03,-0.01,-0.00,32.17
22741190,1793,1,202881,236247,0.54,-0.85,9.96,-0.03,-0.01,-0.00,32.17
22781191,1778,1,202837,236295,0.56,-0.84,9.96,-0.03,-0.01,-0.00,32.17
22821190,1745,1,202914,236656,0.55,-0.83,9.98,-0.03,-0.01,-0.00,32.17
22861191,1782,1,203029,236836,0.54,-0.85,9.97,-0.03,-0.01,-0.00,32.17
22901191,1795,1,203162,237087,0.55,-0.86,9.97,-0.03,-0.01,-0.00,32.17
22941191,1802,1,203174,237144,0.55,-0.85,9.94,-0.03,-0.01,-0.00,32.17
22981190,1808,1,203154,237243,0.52,-0.86,9.95,-0.03,-0.01,-0.00,32.17
23021202,1813,1,203274,237391,0.53,-0.83,9.96,-0.03,-0.01,-0.00,32.17
23061190,1818,1,203352,237758,0.54,-0.85,9.98,-0.03,-0.01,-0.00,32.17
23101191,1857,1,203395,237942,0.55,-0.86,9.95,-0.03,-0.01,-0.00,32.17
23141190,1823,1,203523,238243,0.55,-0.84,9.96,-0.03,-0.01,-0.00,32.17
23181191,1834,1,203479,238474,0.55,-0.84,9.96,-0.03,-0.01,-0.00,32.17
23221190,1805,1,203595,238776,0.55,-0.85,9.97,-0.03,-0.01,-0.00,32.17
23261191,1826,1,203565,238921,0.52,-0.84,9.97,-0.03,-0.01,-0.00,32.17
23301191,1813,1,203651,238921,0.55,-0.83,9.96,-0.03,-0.01,-0.00,32.17
23341191,1843,1,203609,239005,0.54,-0.85,9.96,-0.03,-0.01,-0.01,32.17
23381191,1841,1,203726,239384,0.53,-0.84,9.97,-0.03,-0.01,-0.01,32.17
23421190,1807,1,203759,239581,0.55,-0.84,9.97,-0.03,-0.01,-0.00,32.17
23461190,1829,1,203948,239609,0.53,-0.81,9.97,-0.03,-0.01,-0.00,32.17
23501191,1821,1,203715,238288,0.53,-0.85,9.94,-0.04,-0.01,-0.00,32.17
23541877,1827,1,203031,236546,0.55,-0.84,9.96,-0.03,-0.01,-0.01,32.35
23582191,1797,1,202757,235864,0.54,-0.83,9.95,-0.03,-0.01,-0.00,32.35
23622190,1798,1,202530,235685,0.54,-0.85,9.95,-0.03,-0.01,-0.00,32.35
23662191,1808,1,202647,235833,0.56,-0.85,9.97,-0.03,-0.01,-0.00,32.35
23702190,1801,1,202657,236110,0.56,-0.84,9.95,-0.03,-0.01,-0.00,32.35
23742191,1808,1,202765,236586,0.55,-0.85,9.96,-0.03,-0.01,-0.00,32.35
23782190,1828,1,202910,236859,0.54,-0.82,9.96,-0.03,-0.01,-0.00,32.35
23822190,1818,1,202957,236853,0.52,-0.81,9.96,-0.03,-0.01,-0.00,32.35
23862190,1846,1,202997,237118,0.55,-0.84,9.94,-0.03,-0.01,-0.00,32.35
23902191,1819,1,203136,237478,0.54,-0.84,9.98,-0.03,-0.01,-0.01,32.35
23942191,1813,1,203088,237738,0.55,-0.84,9.96,-0.03,-0.01,-0.00,32.35
23982191,1741,1,203202,237937,0.56,-0.84,9.96,-0.03,-0.01,-0.01,32.35
24022191,1811,1,203250,238075,0.53,-0.85,9.95,-0.03,-0.01,-0.01,32.35
24062191,1835,1,203408,238463,0.54,-0.84,9.96,-0.03,-0.01,-0.00,32.35
24100191,1845,1,203462,238643,0.57,-0.84,9.96,-0.03,-0.01,-0.00,32.35
24140191,1853,1,203524,238933,0.53,-0.84,9.95,-0.03,-0.01,-0.00,32.35
24180190,1856,1,203750,239238,0.53,-0.83,9.97,-0.03,-0.01,-0.00,32.35
24220207,1806,1,203771,239413,0.54,-0.84,9.95,-0.03,-0.01,-0.00,32.35
24260190,1819,1,203701,239558,0.55,-0.85,9.96,-0.03,-0.01,-0.00,32.35
24300191,1809,1,203906,239809,0.55,-0.85,9.94,-0.03,-0.01,-0.00,32.35
24340190,1835,1,204043,239516,0.52,-0.84,9.97,-0.03,-0.01,-0.00,32.35
24380191,1808,1,203525,237532,0.52,-0.87,9.95,-0.03,-0.01,-0.01,32.35
24420191,1802,1,203035,236353,0.54,-0.84,9.95,-0.03,-0.01,-0.00,32.35
24460191,1809,1,202927,236143,0.55,-0.85,9.96,-0.04,-0.01,-0.00,32.35
24500190,1806,1,202957,236279,0.56,-0.84,9.99,-0.03,-0.01,-0.00,32.35
24540191,1809,1,202988,236443,0.54,-0.85,9.97,-0.03,-0.01,-0.00,32.35
24580877,1824,1,203147,236972,0.53,-0.83,9.96,-0.03,-0.01,-0.01,32.49
24621191,1811,1,203278,237472,0.54,-0.84,9.97,-0.03,-0.01,-0.00,32.49
24661191,1821,1,203313,237648,0.53,-0.85,9.95,-0.03,-0.01,-0.00,32.49
24701191,1823,1,203359,237785,0.56,-0.85,9.93,-0.03,-0.01,-0.00,32.49
24741190,1782,1,203425,238058,0.54,-0.86,9.96,-0.03,-0.01,-0.01,32.49
24781191,1808,1,203532,238390,0.52,-0.84,9.94,-0.03,-0.01,-0.00,32.49
24821190,1835,1,203576,238701,0.54,-0.85,9.95,-0.03,-0.01,-0.00,32.49
24861191,1831,1,203579,238914,0.54,-0.85,9.94,-0.03,-0.01,-0.01,32.49
24901191,1811,1,203778,239248,0.53,-0.85,9.97,-0.03,-0.01,-0.00,32.49
24941190,1819,1,203906,239515,0.54,-0.85,9.98,-0.03,-0.01,-0.00,32.49
24981191,1825,1,203913,239660,0.52,-0.84,9.97,-0.03,-0.01,-0.01,32.49
25021202,1835,1,203908,239770,0.55,-0.84,9.95,-0.03,-0.01,-0.00,32.49
25061190,1809,1,204069,239990,0.55,-0.84,9.97,-0.03,-0.01,-0.00,32.49
25101191,1813,1,204181,240375,0.55,-0.85,9.95,-0.03,-0.01,-0.00,32.49
25141190,1815,1,204180,240430,0.53,-0.87,9.97,-0.03,-0.01,-0.00,32.49
25181190,1818,1,204172,239188,0.57,-0.83,9.97,-0.03,-0.01,-0.00,32.49
25221191,1818,1,203566,237033,0.54,-0.82,9.98,-0.03,-0.01,-0.00,32.49
25261190,1825,1,202984,235797,0.55,-0.84,9.98,-0.03,-0.01,-0.00,32.49
25301191,1823,1,202691,235576,0.51,-0.85,9.96,-0.03,-0.01,-0.00,32.49
25341191,1813,1,202719,235484,0.55,-0.82,9.97,-0.03,-0.01,-0.01,32.49
25381190,1807,1,202705,235781,0.53,-0.82,9.96,-0.03,-0.01,-0.00,32.49
25421190,1818,1,202882,236353,0.54,-0.83,9.97,-0.03,-0.01,-0.00,32.49
25461191,1810,1,202888,236490,0.56,-0.83,9.95,-0.03,-0.01,-0.00,32.49
25501191,1823,1,202996,236671,0.55,-0.84,9.96,-0.03,-0.01,-0.00,32.49
25541190,1839,1,203024,236803,0.54,-0.84,9.94,-0.03,-0.01,-0.00,32.49
25581877,1792,1,203121,236861,0.54,-0.83,9.97,-0.03,-0.01,-0.00,32.27
25620190,1831,1,202939,236654,0.54,-0.84,9.96,-0.03,-0.01,-0.00,32.27
25660194,1798,1,203069,236795,0.53,-0.85,9.98,-0.03,-0.01,-0.00,32.27
25700190,1837,1,203057,237112,0.54,-0.85,9.95,-0.03,-0.01,-0.00,32.27
25740191,1814,1,203170,237698,0.53,-0.85,9.95,-0.03,-0.01,-0.00,32.27
25780190,1840,1,203379,238227,0.54,-0.83,9.99,-0.03,-0.01,-0.00,32.27
25820191,1833,1,203384,238389,0.54,-0.84,9.96,-0.03,-0.01,-0.00,32.27
25860221,1823,1,203377,238400,0.56,-0.85,9.96,-0.03,-0.01,-0.00,32.27
25900190,1845,1,203380,238309,0.55,-0.85,9.98,-0.03,-0.01,-0.00,32.27
25940190,1815,1,203516,238605,0.52,-0.81,9.96,-0.03,-0.01,-0.00,32.27
25980191,1811,1,203621,238628,0.55,-0.83,9.95,-0.03,-0.01,-0.00,32.27
26020191,1809,1,203359,236933,0.53,-0.84,9.97,-0.03,-0.01,-0.00,32.27
26060214,1782,1,202788,235306,0.53,-0.83,9.98,-0.03,-0.01,-0.00,32.27
26100191,1805,1,202507,234949,0.54,-0.82,9.94,-0.03,-0.01,-0.00,32.27
26140190,1787,1,202363,234810,0.54,-0.85,9.96,-0.03,-0.01,-0.00,32.27
26180191,1814,1,202384,234692,0.53,-0.83,9.95,-0.03,-0.01,-0.00,32.27
26220191,1827,1,202419,234681,0.53,-0.85,9.97,-0.03,-0.01,-0.01,32.27
26260191,1805,1,202456,234679,0.55,-0.83,9.94,-0.03,-0.01,-0.01,32.27
26300191,1803,1,202579,234942,0.56,-0.83,9.93,-0.03,-0.01,-0.00,32.27
26340191,1823,1,202597,234998,0.54,-0.87,9.98,-0.03,-0.01,-0.00,32.27
26380191,1853,1,202676,235385,0.53,-0.85,9.93,-0.03,-0.01,-0.00,32.27
26420190,1835,1,202939,236038,0.52,-0.82,9.93,-0.04,-0.01,-0.00,32.27
26460191,1833,1,203159,236521,0.56,-0.84,9.96,-0.03,-0.01,-0.01,32.27
26501191,1841,1,203300,236944,0.55,-0.85,9.93,-0.03,-0.01,-0.00,32.27
26541191,1865,1,203556,237447,0.56,-0.84,9.96,-0.03,-0.01,-0.00,32.27
26581877,1840,1,203653,237918,0.53,-0.82,9.95,-0.03,-0.01,-0.00,32.27
26620191,1792,1,203801,238302,0.54,-0.83,9.95,-0.03,-0.01,-0.00,32.27
26660190,1840,1,204024,238816,0.55,-0.85,9.97,-0.03,-0.01,-0.01,32.27
26700191,1811,1,203997,239029,0.54,-0.82,9.99,-0.03,-0.01,-0.00,32.27
26740190,1819,1,204071,239341,0.53,-0.85,9.96,-0.03,-0.01,-0.00,32.27
26780190,1806,1,204182,239140,0.53,-0.84,9.94,-0.03,-0.01,-0.00,32.27
26820191,1828,1,203927,237217,0.54,-0.84,9.95,-0.03,-0.01,-0.00,32.27
26860191,1813,1,203332,235612,0.54,-0.83,9.96,-0.03,-0.01,-0.01,32.27
26900190,1810,1,203100,235283,0.54,-0.85,9.97,-0.03,-0.01,-0.00,32.27
26940191,1810,1,202980,235197,0.54,-0.82,9.96,-0.03,-0.01,-0.00,32.27
26980191,1814,1,203042,235317,0.57,-0.85,9.96,-0.03,-0.01,-0.00,32.27
27020190,1827,1,203178,235916,0.52,-0.86,9.96,-0.03,-0.01,-0.00,32.27
27060190,1815,1,203326,236520,0.56,-0.84,9.97,-0.03,-0.01,-0.00,32.27
27100191,1783,1,203449,236744,0.54,-0.85,9.99,-0.03,-0.01,-0.00,32.27
27140191,1856,1,203482,236785,0.53,-0.84,9.96,-0.03,-0.01,-0.00,32.27
27180191,1755,1,203525,237032,0.54,-0.84,9.92,-0.03,-0.01,-0.00,32.27
27220191,1825,1,203621,237408,0.56,-0.83,9.97,-0.03,-0.01,-0.00,32.27
27260191,1807,1,203805,237523,0.55,-0.84,9.96,-0.03,-0.01,-0.00,32.27
27300191,1785,1,203831,237344,0.54,-0.81,9.96,-0.03,-0.01,-0.00,32.27
27340191,1809,1,203918,237334,0.59,-0.85,9.94,-0.03,-0.02,-0.00,32.27
27380187,1769,1,203869,237719,0.54,-0.84,9.92,-0.03,0.00,-0.01,32.27
27420170,1791,1,203829,238287,0.50,-0.83,9.99,-0.04,0.01,-0.01,32.27
27460171,1765,1,203667,238717,0.52,-0.85,9.96,-0.04,-0.01,-0.01,32.27
27501228,1741,1,203607,239452,0.54,-0.84,9.98,-0.04,-0.01,-0.00,32.27
27541191,1723,1,203803,239404,0.52,-0.87,9.96,-0.04,-0.01,-0.01,32.27
27579877,1759,1,203424,237684,0.52,-0.84,9.93,-0.04,-0.01,-0.00,32.11
27620191,1795,1,203146,236654,0.56,-0.84,9.94,-0.03,-0.01,-0.00,32.11
27660191,1753,1,202988,236214,0.55,-0.85,9.96,-0.03,-0.01,-0.01,32.11
27700217,1767,1,202961,236259,0.54,-0.84,9.97,-0.03,-0.01,-0.00,32.11
27740191,1835,1,203023,236285,0.56,-0.83,9.95,-0.03,-0.01,-0.01,32.11
27780191,1822,1,202991,236651,0.57,-0.84,9.97,-0.03,-0.01,-0.01,32.11
27820191,1849,1,203125,237245,0.51,-0.84,9.95,-0.04,-0.01,-0.01,32.11
27860190,1900,1,203269,237443,0.56,-0.87,9.98,-0.04,-0.01,-0.01,32.11
27900191,1815,1,203196,237629,0.53,-0.83,9.97,-0.03,-0.01,-0.01,32.11
27940191,1904,1,203208,237906,0.51,-0.86,9.98,-0.03,-0.01,-0.01,32.11
27980190,1879,1,203272,238402,0.53,-0.85,9.95,-0.04,-0.01,-0.00,32.11
28020190,1858,1,203271,238945,0.54,-0.86,9.97,-0.03,-0.01,-0.01,32.11
28060191,1894,1,203260,239325,0.53,-0.85,9.96,-0.04,-0.01,-0.01,32.11
28100190,1910,1,203264,239666,0.53,-0.85,9.97,-0.04,-0.01,-0.01,32.11
28140190,1943,1,203275,239897,0.54,-0.83,9.96,-0.03,-0.01,-0.01,32.11
28180191,2005,1,203310,240042,0.54,-0.85,9.94,-0.03,-0.01,-0.01,32.11
28220191,1926,1,203329,240194,0.53,-0.86,9.96,-0.03,-0.01,-0.01,32.11
28260191,1894,1,203261,240241,0.52,-0.85,10.01,-0.03,-0.01,-0.01,32.11
28300191,1870,1,203133,239077,0.53,-0.84,9.92,-0.03,-0.01,-0.00,32.11
28340191,1762,1,202280,236742,0.51,-0.88,9.97,-0.04,-0.01,-0.00,32.11
28380191,1787,1,201763,235772,0.53,-0.85,9.96,-0.04,-0.01,-0.01,32.11
28420191,1791,1,201519,235467,0.53,-0.83,9.96,-0.04,-0.01,-0.01,32.11
28460191,1709,1,201328,235269,0.53,-0.84,9.93,-0.03,-0.01,-0.01,32.11
28500190,1712,1,201106,235032,0.52,-0.88,9.97,-0.04,-0.01,-0.00,32.11
28540191,1745,1,201137,235348,0.55,-0.83,9.95,-0.03,-0.01,-0.00,32.11
28580190,1730,1,201239,235759,0.54,-0.85,9.94,-0.03,-0.01,-0.00,32.11
28620877,1793,1,201336,236153,0.53,-0.85,9.95,-0.03,-0.01,-0.00,32.03
28659190,1765,1,201256,236250,0.52,-0.86,9.95,-0.03,-0.01,-0.00,32.03
28699190,1781,1,201446,236678,0.52,-0.84,9.97,-0.03,-0.01,-0.00,32.03
28739190,1799,1,201421,236908,0.54,-0.83,9.96,-0.03,-0.01,-0.00,32.03
28779191,1755,1,201578,237191,0.53,-0.84,9.99,-0.03,-0.01,-0.00,32.03
28819191,1831,1,201658,237563,0.54,-0.84,9.98,-0.03,-0.01,-0.00,32.03
28859190,1823,1,201725,237958,0.55,-0.85,9.97,-0.03,-0.01,-0.00,32.03
28899190,1808,1,201883,238422,0.52,-0.84,9.95,-0.03,-0.01,-0.00,32.03
28939190,1794,1,201993,239275,0.53,-0.86,9.98,-0.03,-0.01,-0.00,32.03
28979191,1733,1,202132,240414,0.55,-0.84,9.96,-0.04,-0.01,-0.00,32.03
29019191,1829,1,202191,240696,0.53,-0.85,9.99,-0.03,-0.01,-0.00,32.03
29059190,1818,1,202063,239049,0.53,-0.84,9.96,-0.02,-0.01,-0.00,32.03
29099190,1799,1,201338,235232,0.55,-0.82,9.94,-0.02,-0.01,-0.00,32.03
29139231,1911,1,200451,232151,0.56,-0.84,9.93,-0.03,-0.01,-0.00,32.03
29179191,2363,1,199512,229841,0.56,-0.86,9.96,-0.03,-0.00,-0.01,32.03
29219191,2222,1,198816,228599,0.51,-0.84,9.94,-0.03,-0.01,-0.01,32.03
29259190,1951,1,198542,229479,0.55,-0.83,9.94,-0.03,-0.01,-0.01,32.03
29299190,1843,1,199524,231073,0.55,-0.85,9.98,-0.03,-0.02,-0.00,32.03
29339232,1744,1,199638,231185,0.54,-0.83,9.94,-0.03,-0.01,-0.00,32.03
29379191,1717,1,199803,231209,0.53,-0.82,9.96,-0.03,-0.01,-0.00,32.03
29419191,1690,1,199847,231213,0.54,-0.84,9.96,-0.03,-0.01,-0.00,32.03
29459191,1713,1,199802,231146,0.54,-0.85,9.97,-0.03,-0.01,-0.00,32.03
29499190,1751,1,200070,231304,0.55,-0.87,9.95,-0.03,-0.01,-0.00,32.03
29539190,1735,1,200102,230999,0.53,-0.82,9.94,-0.03,-0.01,-0.00,32.03
29579191,1735,1,199933,230640,0.52,-0.80,9.96,-0.03,-0.01,-0.00,32.03
29619188,1779,1,200002,231350,0.57,-0.86,9.95,-0.03,0.00,-0.01,32.03
29659856,1829,1,200000,231443,0.52,-0.85,9.98,-0.03,-0.01,-0.01,31.85
29700191,1905,1,200112,231669,0.51,-0.85,9.95,-0.03,-0.01,-0.01,31.85
29740191,1955,1,200162,231984,0.54,-0.83,9.96,-0.03,-0.01,-0.01,31.85
29780190,2003,1,200071,232324,0.54,-0.85,9.95,-0.03,-0.01,-0.00,31.85
29820190,2038,1,200201,232840,0.51,-0.88,9.95,-0.03,-0.01,-0.01,31.85
29860190,2077,1,200162,233117,0.53,-0.84,9.98,-0.03,-0.01,-0.01,31.85
29900190,2115,1,199979,231716,0.52,-0.83,9.97,-0.03,-0.01,-0.00,31.85
29940191,2109,1,199356,229808,0.52,-0.85,9.94,-0.03,-0.01,-0.00,31.85
29980190,2097,1,198911,228980,0.54,-0.86,9.96,-0.03,-0.01,-0.01,31.85
30020191,2139,1,198823,228751,0.52,-0.83,9.95,-0.03,-0.01,-0.00,31.85
30060190,2038,1,198817,228727,0.50,-0.80,9.96,-0.03,-0.01,-0.00,31.85
30100187,2022,1,198831,229054,0.54,-0.83,9.95,-0.03,-0.01,-0.00,31.85
30140191,1986,1,199130,229728,0.55,-0.83,9.97,-0.03,-0.01,-0.01,31.85
30180191,1915,1,199363,230474,0.54,-0.84,9.95,-0.03,-0.01,-0.00,31.85
30220190,1927,1,199675,231037,0.51,-0.84,9.96,-0.03,-0.01,-0.00,31.85
30260190,1879,1,199713,231216,0.52,-0.84,9.96,-0.03,-0.01,-0.00,31.85
30300190,1850,1,199992,231758,0.55,-0.83,9.96,-0.04,-0.01,-0.01,31.85
30340190,1796,1,200169,232435,0.52,-0.84,9.97,-0.04,-0.01,-0.00,31.85
30378191,1782,1,200354,232849,0.51,-0.82,9.94,-0.04,-0.02,-0.00,31.85
30418190,1749,1,200544,233191,0.53,-0.84,9.95,-0.03,-0.01,-0.00,31.85
30458191,1734,1,200535,233211,0.53,-0.84,9.97,-0.03,-0.01,-0.01,31.85
30498191,1753,1,200562,233301,0.54,-0.85,9.95,-0.03,-0.01,-0.00,31.85
30538190,1693,1,200622,233448,0.54,-0.84,9.95,-0.03,-0.01,-0.01,31.85
30579190,1744,1,200717,233575,0.53,-0.82,9.96,-0.03,-0.01,-0.00,31.85
30619190,1731,1,200742,233346,0.49,-0.86,9.96,-0.03,-0.01,-0.00,31.85
30659877,1665,1,200529,231751,0.54,-0.84,9.96,-0.03,-0.01,-0.00,31.77
30698190,1770,1,199733,230395,0.54,-0.83,9.96,-0.03,-0.01,-0.00,31.77
30738190,1727,1,199174,230765,0.55,-0.84,9.90,-0.04,0.01,-0.01,31.77
30778198,1808,1,198544,231008,0.49,-0.85,9.99,-0.04,0.00,-0.01,31.77
30818170,1749,1,198510,231262,0.51,-0.83,9.95,-0.03,-0.02,-0.00,31.77
30858191,1786,1,198501,231906,0.56,-0.85,9.96,-0.04,-0.01,-0.00,31.77
30898190,1827,1,198612,232124,0.52,-0.85,9.95,-0.03,-0.01,-0.00,31.77
30938190,1686,1,198663,232271,0.52,-0.86,9.96,-0.03,-0.02,-0.00,31.77
30978194,1667,1,198673,232323,0.52,-0.84,9.92,-0.03,-0.02,-0.00,31.77
31018190,1618,1,199048,232671,0.53,-0.82,9.98,-0.03,-0.02,-0.00,31.77
31058190,1566,1,199240,233790,0.54,-0.85,9.95,-0.03,-0.01,-0.01,31.77
31098191,1520,1,199818,236569,0.54,-0.86,9.95,-0.04,-0.01,-0.00,31.77
31138190,1472,1,200232,238721,0.54,-0.85,9.96,-0.03,-0.01,-0.00,31.77
31178191,1484,1,200332,238970,0.52,-0.81,9.99,-0.03,-0.02,-0.00,31.77
31218191,1622,1,200453,239084,0.55,-0.81,9.95,-0.03,-0.02,-0.00,31.77
31258191,1637,1,200628,239230,0.54,-0.85,9.94,-0.04,-0.01,-0.00,31.77
31298191,1679,1,200739,239269,0.57,-0.87,9.97,-0.04,-0.01,-0.00,31.77
31338190,1757,1,200629,237146,0.53,-0.83,9.96,-0.03,-0.01,-0.00,31.77
31378187,1713,1,199703,234493,0.54,-0.82,9.98,-0.03,-0.01,-0.00,31.77
31418190,1739,1,199336,233700,0.54,-0.85,9.96,-0.03,-0.01,-0.00,31.77
31458187,1722,1,199482,233836,0.54,-0.87,9.94,-0.03,-0.01,-0.00,31.77
31498190,1777,1,199620,234121,0.54,-0.81,9.98,-0.03,-0.01,-0.00,31.77
31538190,1751,1,199586,234703,0.54,-0.83,9.96,-0.03,-0.01,-0.00,31.77
31578191,1744,1,199894,235958,0.53,-0.84,9.96,-0.04,-0.01,-0.00,31.77
31618187,1780,1,200110,236922,0.56,-0.87,9.97,-0.04,-0.01,-0.00,31.77
31658191,1787,1,200337,237546,0.52,-0.84,9.97,-0.04,-0.01,-0.00,31.77
31698876,1787,1,200624,238129,0.54,-0.83,9.94,-0.03,-0.01,-0.00,32.11
31739191,1783,1,200699,238361,0.57,-0.86,9.95,-0.03,-0.01,-0.00,32.11
31779187,1807,1,201000,238877,0.57,-0.85,9.93,-0.03,-0.02,-0.00,32.11
31819190,1803,1,201208,239347,0.56,-0.83,9.95,-0.03,-0.01,-0.00,32.11
31859188,1808,1,201395,239980,0.54,-0.82,9.97,-0.03,-0.01,-0.00,32.11
31899191,1791,1,201533,240618,0.55,-0.82,9.95,-0.04,-0.01,-0.00,32.11
31939190,1809,1,201621,241023,0.56,-0.86,9.95,-0.03,-0.01,-0.00,32.11
31979191,1796,1,201878,241675,0.56,-0.85,9.94,-0.03,-0.01,-0.00,32.11
32019190,1812,1,202088,242002,0.54,-0.81,9.96,-0.03,-0.01,-0.01,32.11
32059191,1846,1,202210,242005,0.57,-0.83,9.95,-0.03,-0.01,-0.00,32.11
32099190,1795,1,201817,239414,0.55,-0.86,9.96,-0.03,-0.01,-0.00,32.11
32139190,1834,1,200867,237729,0.57,-0.86,9.96,-0.03,-0.01,-0.00,32.11
32179190,1924,1,200666,237646,0.53,-0.82,9.96,-0.03,-0.01,-0.00,32.11
32219191,1854,1,200482,237582,0.54,-0.83,9.96,-0.03,-0.01,-0.00,32.11
32259190,1849,1,200539,237986,0.55,-0.88,9.96,-0.04,-0.01,-0.00,32.11
32299191,1873,1,200602,238365,0.56,-0.86,9.95,-0.03,-0.01,-0.00,32.11
32339190,1815,1,200769,239278,0.54,-0.84,9.99,-0.04,-0.01,-0.00,32.11
32379191,1872,1,200958,239520,0.53,-0.84,9.98,-0.04,-0.01,-0.00,32.11
32419190,1859,1,200923,239488,0.57,-0.85,9.96,-0.04,-0.02,-0.00,32.11
32459190,1841,1,200991,239301,0.56,-0.86,9.95,-0.03,-0.01,-0.00,32.11
32499190,1818,1,201010,239401,0.56,-0.84,9.97,-0.03,-0.01,-0.00,32.11
32539190,1847,1,201152,239736,0.54,-0.83,9.96,-0.03,-0.01,-0.00,32.11
32579190,1838,1,201333,240152,0.58,-0.82,9.98,-0.03,-0.01,-0.00,32.11
32619190,1825,1,201496,240423,0.58,-0.84,9.95,-0.03,-0.01,-0.00,32.11
32659190,1809,1,201595,240607,0.57,-0.84,9.96,-0.03,-0.01,-0.01,32.11
32699877,1790,1,201663,240634,0.57,-0.85,9.95,-0.03,-0.01,-0.00,32.59
32738190,1808,1,201697,240914,0.56,-0.84,9.95,-0.03,-0.01,-0.00,32.59
32778191,1827,1,201696,241158,0.57,-0.85,9.97,-0.03,-0.01,-0.01,32.59
32818211,1809,1,201816,241436,0.57,-0.84,9.93,-0.03,-0.01,-0.01,32.59
32858191,1811,1,201845,240848,0.55,-0.84,9.97,-0.03,-0.01,-0.00,32.59
32898190,1834,1,201064,237999,0.55,-0.84,9.94,-0.03,-0.01,-0.00,32.59
32938190,1821,1,200426,237008,0.57,-0.86,9.97,-0.03,-0.01,-0.00,32.59
32978190,1807,1,200184,236764,0.58,-0.85,9.97,-0.03,-0.01,-0.00,32.59
33018191,1826,1,200175,236748,0.57,-0.83,9.97,-0.03,-0.01,-0.00,32.59
33058190,1826,1,200336,237031,0.56,-0.84,9.95,-0.03,-0.01,-0.00,32.59
33098191,1793,1,200318,237420,0.58,-0.84,9.96,-0.03,-0.01,-0.00,32.59
33138191,1835,1,200479,237964,0.57,-0.84,9.98,-0.03,-0.01,-0.01,32.59
33178190,1823,1,200549,238328,0.55,-0.84,9.96,-0.03,-0.01,-0.00,32.59
33218190,1790,1,200569,238563,0.57,-0.84,9.97,-0.03,-0.01,-0.00,32.59
33258191,1827,1,200561,238962,0.56,-0.85,9.95,-0.04,-0.01,-0.00,32.59
33298190,1825,1,200644,239288,0.57,-0.86,9.98,-0.03,-0.01,-0.00,32.59
33338191,1853,1,200742,239430,0.54,-0.84,9.95,-0.03,-0.01,-0.00,32.59
33378190,1840,1,200832,239407,0.55,-0.84,9.97,-0.03,-0.01,-0.00,32.59
33418191,1824,1,200766,239490,0.57,-0.85,9.94,-0.03,-0.01,-0.00,32.59
33458190,1820,1,200763,239429,0.54,-0.87,9.94,-0.04,-0.00,-0.00,32.59
33498190,1855,1,200685,239154,0.55,-0.83,9.95,-0.03,-0.00,-0.01,32.59
33538190,1838,1,200429,238491,0.57,-0.85,9.95,-0.03,0.00,-0.01,32.59
33578170,1907,1,200190,237076,0.52,-0.85,9.98,-0.03,-0.00,-0.01,32.59
33618188,2131,1,199463,234684,0.55,-0.85,9.96,-0.04,-0.01,-0.01,32.59
33658191,3867,1,198782,233887,0.54,-0.83,9.87,-0.04,-0.01,-0.01,32.59
33698190,2032,1,198410,233858,0.52,-0.86,9.98,-0.04,-0.00,-0.01,32.59
33738877,1643,1,198250,234037,0.52,-0.85,9.99,-0.04,-0.02,-0.00,32.11
33777191,1575,1,198336,234184,0.55,-0.85,9.96,-0.04,-0.02,-0.00,32.11
33817190,1535,1,198286,233989,0.55,-0.85,9.95,-0.03,-0.02,-0.00,32.11
33857191,1590,1,198518,234001,0.53,-0.84,9.97,-0.03,-0.02,-0.00,32.11
33897190,1605,1,198832,233761,0.57,-0.85,9.96,-0.03,-0.02,-0.00,32.11
33937190,1625,1,198969,233511,0.57,-0.83,9.96,-0.03,-0.01,-0.00,32.11
33977190,1634,1,198994,233282,0.54,-0.85,9.97,-0.03,-0.01,-0.00,32.11
34017190,1718,1,199300,233388,0.55,-0.85,9.96,-0.03,-0.02,-0.00,32.11
34057190,1747,1,199591,233677,0.57,-0.84,9.96,-0.03,-0.01,-0.00,32.11
34097190,1778,1,199618,234093,0.56,-0.84,9.97,-0.03,-0.01,-0.00,32.11
34137191,1738,1,199606,234349,0.54,-0.86,9.97,-0.03,-0.01,-0.01,32.11
34177190,1761,1,199776,234611,0.55,-0.84,9.93,-0.03,-0.01,-0.00,32.11
34217190,1878,1,199883,234872,0.57,-0.85,9.98,-0.03,-0.01,-0.00,32.11
34257210,1871,1,200113,235352,0.54,-0.84,9.96,-0.03,-0.01,-0.00,32.11
34297191,1918,1,200293,235710,0.54,-0.84,9.98,-0.03,-0.01,-0.00,32.11
34337190,1885,1,200441,235214,0.55,-0.87,9.95,-0.03,-0.01,-0.01,32.11
34377191,1858,1,199892,233518,0.56,-0.82,9.92,-0.03,-0.01,-0.00,32.11
34417190,1898,1,199375,232548,0.56,-0.84,9.97,-0.03,-0.01,-0.00,32.11
34457191,1939,1,199133,232339,0.56,-0.83,9.96,-0.03,-0.01,-0.00,32.11
34497190,1826,1,199148,232208,0.55,-0.86,9.98,-0.03,-0.01,-0.00,32.11
34537190,1839,1,199146,232166,0.58,-0.84,9.97,-0.03,-0.01,-0.00,32.11
34577190,1868,1,199148,232717,0.59,-0.84,9.95,-0.03,-0.01,-0.00,32.11
34617190,1761,1,199386,233360,0.55,-0.84,9.96,-0.03,-0.01,-0.00,32.11
34657190,1827,1,199406,233573,0.55,-0.85,9.97,-0.03,-0.01,-0.00,32.11
34697191,1762,1,199516,233884,0.55,-0.83,9.95,-0.03,-0.01,-0.01,32.11
34737190,1773,1,199440,234215,0.57,-0.82,9.94,-0.04,-0.00,-0.01,32.11
34777877,1809,1,199464,234739,0.55,-0.84,9.99,-0.03,-0.01,-0.01,31.77
34818190,1794,1,199646,235216,0.55,-0.85,9.93,-0.03,-0.01,-0.00,31.77
34858190,1786,1,199754,235765,0.57,-0.85,9.96,-0.03,-0.01,-0.00,31.77
34898190,1821,1,199987,236263,0.54,-0.86,9.98,-0.03,-0.01,-0.00,31.77
34938190,1824,1,200172,236741,0.54,-0.85,9.94,-0.03,-0.01,-0.00,31.77
34978191,1830,1,200191,237024,0.57,-0.86,9.94,-0.03,-0.01,-0.00,31.77
35018190,1809,1,200132,237324,0.56,-0.84,9.96,-0.03,-0.01,-0.00,31.77
35058191,1793,1,200015,237153,0.54,-0.86,9.96,-0.03,-0.01,-0.01,31.77
35098190,1838,1,199538,234951,0.58,-0.84,9.98,-0.03,-0.01,-0.00,31.77
35138190,1817,1,198776,233372,0.57,-0.85,9.92,-0.03,-0.01,-0.00,31.77
35178191,1817,1,198552,232798,0.54,-0.86,9.94,-0.03,-0.01,-0.00,31.77
35218190,1811,1,198472,232588,0.56,-0.83,9.97,-0.03,-0.01,-0.00,31.77
35258190,1855,1,198469,232917,0.56,-0.85,9.94,-0.04,-0.01,-0.00,31.77
35298190,1823,1,198598,233684,0.51,-0.83,9.96,-0.05,-0.02,-0.00,31.77
35338191,1839,1,198802,234467,0.55,-0.85,10.03,-0.05,-0.01,-0.01,31.77
35378190,1855,1,199029,234610,0.56,-0.85,10.00,-0.03,-0.01,-0.00,31.77
35418191,1965,1,199223,234438,0.57,-0.85,9.96,-0.03,-0.01,-0.00,31.77
35458191,1931,1,199403,234545,0.55,-0.86,9.92,-0.03,-0.02,-0.00,31.77
35498191,1933,1,199652,234526,0.57,-0.86,9.96,-0.04,-0.01,-0.00,31.77
35538190,1936,1,199934,234558,0.54,-0.86,9.97,-0.03,-0.01,-0.00,31.77
35578191,1919,1,200081,234388,0.56,-0.84,9.93,-0.03,-0.00,-0.00,31.77
35618190,1930,1,199995,234255,0.56,-0.86,9.94,-0.03,-0.00,-0.00,31.77
35658191,1968,1,199997,234026,0.56,-0.86,9.96,-0.03,-0.01,-0.00,31.77
35698190,1999,1,199975,233953,0.53,-0.85,9.95,-0.03,-0.01,-0.00,31.77
35738191,1968,1,199968,234281,0.55,-0.84,9.93,-0.04,-0.01,-0.00,31.77
35778877,1975,1,200187,234596,0.56,-0.84,9.93,-0.04,-0.01,-0.01,32.21
35817191,1973,1,200257,234401,0.54,-0.85,9.94,-0.04,-0.01,-0.00,32.21
35857190,1981,1,199916,233049,0.55,-0.85,9.95,-0.04,-0.01,-0.00,32.21
35897224,1967,1,199516,232094,0.54,-0.84,9.96,-0.03,-0.01,-0.00,32.21
35937191,1946,1,199519,232444,0.57,-0.86,9.99,-0.04,-0.01,-0.01,32.21
35977191,1971,1,199821,233281,0.56,-0.85,9.96,-0.04,-0.03,-0.00,32.21
36017190,1927,1,200187,233708,0.56,-0.84,9.93,-0.04,-0.03,-0.00,32.21
36057190,1847,1,200310,234275,0.57,-0.84,9.96,-0.03,-0.01,-0.00,32.21
36097225,1863,1,200417,234713,0.56,-0.86,9.98,-0.03,-0.01,-0.01,32.21
36137190,1831,1,200524,234980,0.57,-0.87,9.95,-0.03,-0.01,-0.00,32.21
36177191,1840,1,200411,235397,0.58,-0.82,9.94,-0.04,-0.01,-0.01,32.21
36217191,1774,1,200303,235723,0.54,-0.85,9.99,-0.04,-0.01,-0.00,32.21
36257191,1863,1,200391,236346,0.55,-0.85,9.97,-0.03,-0.01,-0.00,32.21
36297191,1851,1,200575,237031,0.56,-0.84,9.96,-0.04,-0.01,-0.00,32.21
36337191,1815,1,200582,237478,0.58,-0.86,9.95,-0.03,-0.01,-0.00,32.21
36377191,1792,1,200587,237643,0.55,-0.83,9.95,-0.03,-0.01,-0.01,32.21
36417190,1707,1,200643,237656,0.57,-0.86,9.97,-0.03,-0.01,-0.00,32.21
36457191,1641,1,200615,237802,0.56,-0.87,9.95,-0.03,-0.01,-0.00,32.21
36497190,1599,1,200498,237798,0.55,-0.86,9.93,-0.03,-0.00,-0.01,32.21
36537191,1648,1,200237,237459,0.56,-0.84,9.98,-0.03,-0.00,-0.01,32.21
36577190,1664,1,199648,235147,0.55,-0.85,9.95,-0.03,-0.01,-0.00,32.21
36617191,1646,1,198827,233887,0.57,-0.86,9.93,-0.03,-0.01,-0.00,32.21
36657190,1690,1,198537,233708,0.56,-0.86,9.95,-0.03,-0.01,-0.00,32.21
36697190,1655,1,198607,233976,0.56,-0.83,9.95,-0.04,-0.02,-0.01,32.21
36737191,1616,1,198782,235175,0.56,-0.86,9.94,-0.04,-0.02,-0.00,32.21
36777190,1502,1,199071,236990,0.57,-0.86,9.95,-0.04,-0.01,-0.00,32.21
36817874,1628,1,199336,237400,0.55,-0.84,9.96,-0.03,-0.01,-0.00,32.09
36858190,1680,1,199301,237408,0.56,-0.84,10.01,-0.03,-0.01,-0.00,32.09
36898190,1722,1,199528,237594,0.55,-0.83,9.94,-0.03,-0.02,-0.00,32.09
36938191,1712,1,199968,237908,0.56,-0.87,9.98,-0.03,-0.02,0.00,32.09
36978168,1690,1,200432,238240,0.60,-0.85,9.93,-0.02,-0.02,0.00,32.09
37016170,1678,1,200577,238291,0.60,-0.83,9.95,-0.03,0.00,-0.00,32.09
37056168,1716,1,200401,238544,0.58,-0.85,9.95,-0.04,-0.00,-0.01,32.09
37096190,1701,1,200272,239132,0.55,-0.86,9.98,-0.04,-0.01,-0.01,32.09
37136191,1684,1,200340,239566,0.54,-0.87,9.96,-0.04,-0.01,-0.01,32.09
37176191,1739,1,200528,239718,0.57,-0.85,9.97,-0.03,-0.02,-0.00,32.09
37216191,1749,1,200747,239585,0.57,-0.86,9.97,-0.03,-0.02,-0.00,32.09
37256190,1795,1,200919,238735,0.56,-0.86,9.97,-0.03,-0.02,-0.00,32.09
37296187,1808,1,200701,236474,0.60,-0.85,9.93,-0.03,-0.02,0.00,32.09
37336170,1707,1,200262,235372,0.59,-0.84,9.92,-0.03,-0.01,-0.00,32.09
37376187,1678,1,199753,234949,0.58,-0.84,9.95,-0.04,0.01,-0.00,32.09
37416169,1683,1,199251,234931,0.56,-0.85,9.98,-0.04,0.00,-0.01,32.09
37456170,1698,1,199113,235337,0.57,-0.85,9.96,-0.04,-0.01,-0.01,32.09
37496191,1750,1,199028,235791,0.55,-0.87,9.97,-0.04,-0.01,-0.01,32.09
37536233,1747,1,199285,235977,0.57,-0.86,9.94,-0.03,-0.01,-0.00,32.09
37576190,1801,1,199444,236016,0.56,-0.84,9.95,-0.03,-0.02,-0.00,32.09
37616190,1820,1,199668,235930,0.58,-0.84,9.98,-0.03,-0.02,-0.00,32.09
37656190,1808,1,199867,236131,0.57,-0.83,9.94,-0.03,-0.01,-0.00,32.09
37696190,1826,1,199798,236288,0.58,-0.83,9.96,-0.03,-0.01,-0.01,32.09
37736210,1887,1,199806,236406,0.59,-0.86,9.94,-0.04,-0.01,-0.01,32.09
37776191,1935,1,199685,236261,0.55,-0.86,10.00,-0.03,-0.01,-0.00,32.09
37816191,1955,1,199662,236249,0.56,-0.84,9.96,-0.03,-0.01,-0.00,32.09
37856877,1934,1,199631,236282,0.57,-0.83,9.95,-0.03,-0.01,-0.00,32.13
37897190,1936,1,199877,236564,0.56,-0.88,9.96,-0.03,-0.01,-0.00,32.13
37937214,1936,1,199880,236706,0.57,-0.86,9.97,-0.04,-0.01,-0.00,32.13
37977190,1968,1,200037,236603,0.57,-0.86,9.95,-0.03,-0.01,-0.00,32.13
38017191,1963,1,199741,234980,0.56,-0.83,9.94,-0.03,-0.01,-0.01,32.13
38057190,1989,1,199072,233444,0.57,-0.84,9.93,-0.03,-0.01,-0.00,32.13
38097190,1856,1,198812,232799,0.59,-0.85,9.93,-0.03,-0.01,-0.00,32.13
38137191,1936,1,198605,232587,0.57,-0.86,9.97,-0.03,-0.01,-0.00,32.13
38177190,1981,1,198600,232741,0.57,-0.83,9.96,-0.03,-0.01,-0.00,32.13
38217190,1927,1,198791,233067,0.56,-0.85,9.93,-0.03,-0.01,-0.00,32.13
38257190,1920,1,199059,233570,0.57,-0.84,9.97,-0.03,-0.01,-0.00,32.13
38297191,1920,1,199172,233846,0.55,-0.84,9.99,-0.03,-0.01,-0.00,32.13
38337190,1913,1,199352,234134,0.55,-0.85,9.97,-0.03,-0.01,-0.00,32.13
38377190,1917,1,199439,234239,0.57,-0.87,9.97,-0.03,-0.01,-0.00,32.13
38417190,1909,1,199591,234627,0.57,-0.85,9.96,-0.03,-0.01,-0.00,32.13
38457191,1951,1,199770,234963,0.57,-0.83,9.97,-0.03,-0.01,-0.00,32.13
38497190,1872,1,199898,235205,0.56,-0.84,9.94,-0.03,-0.01,-0.00,32.13
38537191,1891,1,199878,235453,0.57,-0.84,9.98,-0.03,-0.01,-0.00,32.13
38576190,1872,1,200076,235842,0.56,-0.85,9.97,-0.03,-0.01,-0.00,32.13
38616190,1866,1,200165,236143,0.57,-0.83,9.98,-0.03,-0.01,-0.00,32.13
38656191,1815,1,200268,236247,0.57,-0.82,9.98,-0.03,-0.01,-0.01,32.13
38696191,1827,1,200051,234880,0.54,-0.87,9.95,-0.03,-0.01,-0.01,32.13
38736190,1797,1,199477,233487,0.57,-0.86,9.95,-0.03,-0.01,-0.00,32.13
38776191,1840,1,199352,233276,0.58,-0.83,9.96,-0.03,-0.01,-0.00,32.13
38816190,1814,1,199263,233280,0.57,-0.84,9.96,-0.03,-0.01,-0.00,32.13
38856191,1829,1,199414,233710,0.56,-0.83,9.95,-0.03,-0.01,-0.00,32.13
38896876,1790,1,199674,234367,0.57,-0.85,9.98,-0.03,-0.01,-0.00,32.19
38937191,1830,1,199932,234984,0.58,-0.86,9.96,-0.03,-0.01,-0.00,32.19
38977190,1840,1,200163,235236,0.57,-0.83,9.96,-0.03,-0.01,-0.00,32.19
39017190,1877,1,200209,235213,0.58,-0.86,9.95,-0.03,-0.01,-0.00,32.19
39057190,1841,1,200178,235190,0.57,-0.87,9.97,-0.03,-0.01,-0.00,32.19
39097191,1847,1,200350,235548,0.57,-0.86,9.96,-0.03,-0.01,-0.00,32.19
39137190,1833,1,200360,235816,0.57,-0.86,9.95,-0.03,-0.01,-0.00,32.19
39177190,1829,1,200384,236042,0.58,-0.85,9.98,-0.04,-0.01,-0.01,32.19
39217190,1830,1,200360,236318,0.56,-0.85,9.94,-0.03,-0.01,-0.01,32.19
39257191,1830,1,200471,236685,0.57,-0.86,9.96,-0.03,-0.01,-0.00,32.19
39297190,1846,1,200618,237042,0.57,-0.86,9.98,-0.03,-0.01,-0.00,32.19
39337191,1872,1,200569,236553,0.55,-0.86,9.96,-0.03,-0.01,-0.00,32.19
39377191,1849,1,200194,234998,0.58,-0.84,9.96,-0.03,-0.01,-0.00,32.19
39417191,1853,1,199780,233807,0.56,-0.84,9.96,-0.03,-0.01,-0.00,32.19
39457190,1846,1,199520,233373,0.57,-0.84,9.94,-0.03,-0.01,-0.00,32.19
39497191,1850,1,199388,233268,0.56,-0.83,9.93,-0.03,-0.01,-0.00,32.19
39537190,1840,1,199443,233360,0.55,-0.84,9.95,-0.03,-0.01,-0.00,32.19
39577191,1861,1,199570,233719,0.57,-0.83,9.95,-0.03,-0.01,-0.00,32.19
39617190,1858,1,199648,233985,0.56,-0.85,9.95,-0.03,-0.01,-0.00,32.19
39657191,1855,1,199835,234296,0.58,-0.85,9.97,-0.03,-0.01,-0.00,32.19
39697191,1812,1,199966,234592,0.57,-0.84,9.97,-0.03,-0.01,-0.00,32.19
39737191,1833,1,200184,235040,0.57,-0.84,9.95,-0.03,-0.01,-0.01,32.19
39777191,1820,1,200311,235276,0.57,-0.84,9.97,-0.03,-0.01,-0.00,32.19
39817190,1829,1,200458,235353,0.57,-0.87,9.96,-0.03,-0.01,-0.00,32.19
39857191,1798,1,200513,235354,0.59,-0.86,9.96,-0.03,-0.01,-0.00,32.19
39897878,1815,1,200642,235619,0.57,-0.84,9.96,-0.03,-0.01,-0.00,32.19
39936191,1809,1,200823,236039,0.58,-0.84,9.96,-0.03,-0.01,-0.00,32.19
39976191,1809,1,200915,236249,0.57,-0.84,9.96,-0.03,-0.01,-0.00,32.19
40016191,1835,1,200891,235914,0.56,-0.85,9.94,-0.03,-0.01,-0.01,32.19
40056190,1862,1,200591,234257,0.57,-0.86,9.94,-0.03,-0.01,-0.00,32.19
40096190,1824,1,199987,233010,0.57,-0.83,9.97,-0.03,-0.01,-0.00,32.19
40136190,1821,1,199812,232554,0.56,-0.84,9.98,-0.03,-0.01,-0.00,32.19
40176190,1829,1,199676,232184,0.59,-0.83,9.96,-0.03,-0.01,-0.00,32.19
40216190,1861,1,199629,231875,0.58,-0.84,9.95,-0.03,-0.01,-0.00,32.19
40256190,1840,1,199735,232417,0.60,-0.85,9.94,-0.03,-0.00,-0.00,32.19
40296190,1869,1,199934,233119,0.56,-0.84,9.95,-0.03,-0.01,-0.01,32.19
40336190,1859,1,200061,233555,0.57,-0.83,9.96,-0.04,-0.01,-0.01,32.19
40376190,1838,1,200128,233615,0.57,-0.86,9.94,-0.03,-0.01,-0.00,32.19
40416190,1840,1,200219,233383,0.56,-0.85,9.96,-0.03,-0.01,-0.00,32.19
40456190,1856,1,200182,233471,0.56,-0.83,9.95,-0.03,-0.01,-0.00,32.19
40496191,1828,1,200324,234058,0.56,-0.84,9.95,-0.03,-0.01,-0.00,32.19
40536190,1841,1,200518,234707,0.57,-0.85,9.97,-0.04,-0.01,-0.00,32.19
40576190,1857,1,200703,235098,0.57,-0.86,9.97,-0.03,-0.01,-0.01,32.19
40616191,1863,1,200830,235389,0.56,-0.85,9.96,-0.03,-0.01,-0.00,32.19
40656190,1823,1,200964,235692,0.55,-0.84,9.95,-0.03,-0.01,-0.00,32.19
40696190,1845,1,200998,236298,0.57,-0.85,9.98,-0.03,-0.01,-0.00,32.19
40736190,1841,1,201207,236543,0.57,-0.86,9.93,-0.04,-0.01,-0.01,32.19
40776191,1840,1,200964,234867,0.56,-0.84,9.95,-0.03,-0.01,-0.00,32.19
40816190,1867,1,200363,233141,0.55,-0.85,9.97,-0.03,-0.01,-0.00,32.19
40856190,1853,1,199917,232887,0.57,-0.83,9.96,-0.03,-0.01,-0.00,32.19
40896190,1836,1,199949,233285,0.57,-0.83,9.94,-0.04,-0.01,-0.01,32.19
40936877,1776,1,200106,233762,0.57,-0.87,9.95,-0.04,-0.01,-0.01,32.05
40975191,1839,1,200280,234313,0.58,-0.85,9.95,-0.03,-0.01,-0.00,32.05
41015203,1823,1,200534,234735,0.56,-0.85,9.97,-0.03,-0.01,-0.00,32.05
41055190,1842,1,200652,234988,0.58,-0.87,9.94,-0.03,-0.01,-0.00,32.05
41095190,1863,1,200667,235211,0.57,-0.86,9.96,-0.03,-0.01,-0.00,32.05
41135190,1871,1,200649,235368,0.57,-0.84,9.97,-0.03,-0.01,-0.00,32.05
41175190,1857,1,200763,235561,0.56,-0.83,9.96,-0.03,-0.01,-0.00,32.05
41215195,1904,1,200891,235797,0.56,-0.84,9.96,-0.03,-0.01,-0.00,32.05
41255190,1887,1,201046,236168,0.57,-0.87,9.95,-0.03,-0.01,-0.00,32.05
41295190,1850,1,201244,236723,0.56,-0.84,9.96,-0.03,-0.01,-0.00,32.05
41335191,1844,1,201209,236994,0.57,-0.85,9.97,-0.04,-0.01,-0.01,32.05
41375190,1826,1,201295,237004,0.57,-0.85,9.98,-0.03,-0.01,-0.00,32.05
41415191,1790,1,201366,237041,0.55,-0.85,9.98,-0.03,-0.01,-0.00,32.05
41455191,1804,1,201391,237149,0.57,-0.84,9.96,-0.03,-0.01,-0.00,32.05
41495191,1836,1,201567,237577,0.57,-0.84,9.93,-0.04,-0.01,-0.00,32.05
41535190,1857,1,201435,236462,0.57,-0.85,9.95,-0.04,-0.01,-0.00,32.05
41575190,1854,1,200789,234288,0.57,-0.86,9.95,-0.03,-0.01,-0.00,32.05
41615190,1867,1,200027,232608,0.56,-0.84,9.96,-0.03,-0.01,-0.00,32.05
41656190,1847,1,199738,232129,0.57,-0.85,9.95,-0.03,-0.01,-0.00,32.05
41696191,1867,1,199773,232694,0.57,-0.84,9.94,-0.04,-0.01,-0.00,32.05
41736190,1872,1,200043,233378,0.55,-0.83,9.97,-0.04,-0.01,-0.01,32.05
41776190,1872,1,200231,233903,0.56,-0.85,9.96,-0.03,-0.01,-0.00,32.05
41816190,1847,1,200388,233993,0.57,-0.84,9.95,-0.03,-0.01,-0.00,32.05
41856190,1855,1,200332,233826,0.58,-0.85,9.94,-0.03,-0.01,-0.00,32.05
41896191,1836,1,200350,233994,0.58,-0.84,9.96,-0.03,-0.01,-0.00,32.05
41936877,1803,1,200501,234607,0.57,-0.84,9.95,-0.04,-0.01,-0.00,32.05
41975191,1839,1,200742,235072,0.56,-0.86,9.98,-0.04,-0.01,-0.00,32.05
42015190,1824,1,200736,235113,0.56,-0.83,9.95,-0.03,-0.01,-0.00,32.05
42055190,1846,1,200874,235367,0.55,-0.85,9.95,-0.03,-0.01,-0.00,32.05
42095190,1854,1,201089,235972,0.56,-0.82,9.94,-0.03,-0.01,-0.00,32.05
42135190,1843,1,201170,236343,0.56,-0.82,9.95,-0.04,-0.01,-0.00,32.05
42175191,1837,1,201298,236646,0.56,-0.85,9.97,-0.03,-0.01,-0.01,32.05
42215191,1840,1,201372,236552,0.56,-0.84,9.99,-0.03,-0.01,-0.00,32.05
42255190,1850,1,201394,236699,0.56,-0.85,9.95,-0.03,-0.01,-0.00,32.05
42295191,1848,1,201463,237161,0.57,-0.84,9.96,-0.03,-0.01,-0.00,32.05
42335190,1848,1,201677,237401,0.56,-0.83,9.96,-0.04,-0.01,-0.00,32.05
42375190,1869,1,201460,235841,0.57,-0.83,9.96,-0.03,-0.01,-0.00,32.05
42415190,1845,1,200720,233778,0.56,-0.82,9.96,-0.03,-0.01,-0.00,32.05
42455191,1863,1,200257,232974,0.56,-0.84,9.94,-0.03,-0.01,-0.00,32.05
42495191,1840,1,200174,233135,0.57,-0.83,9.95,-0.03,-0.01,-0.00,32.05
42535190,1855,1,200328,233528,0.56,-0.83,9.93,-0.03,-0.01,-0.00,32.05
42575190,1871,1,200383,234020,0.56,-0.84,9.96,-0.04,-0.01,-0.01,32.05
42615191,1819,1,200513,234337,0.56,-0.84,9.95,-0.03,-0.01,-0.00,32.05
42656228,1842,1,200541,234611,0.57,-0.83,9.95,-0.03,-0.01,-0.00,32.05
42696191,1814,1,200622,235071,0.59,-0.84,9.94,-0.04,-0.01,-0.01,32.05
42736191,1801,1,200742,235625,0.56,-0.85,9.95,-0.04,-0.00,-0.01,32.05
42776190,1872,1,200771,235946,0.55,-0.85,9.96,-0.04,-0.00,-0.01,32.05
42816187,1879,1,200687,235941,0.53,-0.84,9.99,-0.03,-0.00,-0.01,32.05
42856193,1951,1,200531,235584,0.56,-0.83,9.96,-0.03,-0.01,-0.01,32.05
42896190,2529,1,200278,235241,0.54,-0.84,9.97,-0.03,-0.01,-0.01,32.05
42936190,2128,1,200066,235184,0.55,-0.82,9.96,-0.04,-0.01,-0.01,32.05
42976877,1897,1,199960,235271,0.56,-0.85,9.98,-0.04,-0.01,-0.01,32.03
43015190,1798,1,199752,235087,0.57,-0.84,9.95,-0.04,-0.01,-0.01,32.03
43055190,1773,1,199698,235347,0.54,-0.85,9.98,-0.04,-0.01,-0.01,32.03
43095190,1714,1,199799,235850,0.55,-0.85,9.96,-0.03,-0.01,-0.00,32.03
43135190,1715,1,199934,236023,0.57,-0.84,9.97,-0.03,-0.01,-0.00,32.03
43175190,1659,1,199677,234669,0.56,-0.85,9.96,-0.03,-0.01,-0.00,32.03
43215191,1719,1,199156,233601,0.57,-0.84,9.97,-0.03,-0.01,-0.00,32.03
43255191,1604,1,198854,233695,0.57,-0.87,9.96,-0.03,-0.01,-0.00,32.03
43295191,1535,1,199113,234761,0.53,-0.83,9.97,-0.07,-0.01,-0.01,32.03
43335190,1680,1,199161,234870,0.56,-0.86,9.98,-0.04,-0.02,-0.01,32.03
43375191,1741,1,199133,234700,0.57,-0.85,9.99,-0.02,-0.01,-0.00,32.03
43415190,1814,1,199303,235077,0.57,-0.85,9.96,-0.02,-0.02,-0.00,32.03
43455187,1789,1,199596,235643,0.55,-0.85,9.95,-0.03,-0.01,-0.00,32.03
43495190,1749,1,199723,235718,0.57,-0.87,9.95,-0.04,-0.01,-0.00,32.03
43535190,1730,1,199733,235970,0.57,-0.88,9.95,-0.04,-0.01,-0.01,32.03
43575191,1714,1,199811,236147,0.56,-0.86,9.97,-0.03,-0.01,-0.00,32.03
43615190,1715,1,199988,236421,0.57,-0.85,9.94,-0.03,-0.02,-0.00,32.03
43655190,1737,1,200157,236946,0.58,-0.86,9.95,-0.03,-0.02,-0.00,32.03
43695191,1728,1,200332,237587,0.58,-0.84,9.96,-0.03,-0.01,-0.00,32.03
43735191,1733,1,200465,237982,0.55,-0.89,9.98,-0.04,-0.01,-0.00,32.03
43775190,1739,1,200617,238296,0.56,-0.85,9.92,-0.03,-0.02,-0.00,32.03
43815190,1791,1,200733,238400,0.58,-0.85,9.97,-0.03,-0.01,-0.00,32.03
43855191,1809,1,200849,238451,0.58,-0.86,9.96,-0.03,-0.02,-0.00,32.03
43895191,1825,1,200984,237959,0.58,-0.87,9.95,-0.04,-0.02,-0.00,32.03
43935190,1851,1,200657,236026,0.60,-0.86,9.94,-0.03,-0.02,-0.00,32.03
43975190,1822,1,200149,234921,0.59,-0.85,9.96,-0.03,-0.01,-0.00,32.03
44015878,1788,1,199811,234377,0.57,-0.87,9.97,-0.03,-0.01,-0.00,32.33
44054191,1799,1,199805,234230,0.61,-0.86,9.94,-0.04,-0.02,-0.00,32.33
44094191,1810,1,199833,234309,0.59,-0.87,9.94,-0.03,-0.01,-0.00,32.33
44134190,1841,1,199805,234550,0.59,-0.87,9.97,-0.03,-0.01,-0.00,32.33
44174190,1846,1,199981,235031,0.57,-0.86,9.98,-0.04,-0.01,-0.00,32.33
44214191,1853,1,200008,235151,0.59,-0.85,9.94,-0.04,-0.01,-0.00,32.33
44254190,1867,1,200012,235223,0.59,-0.88,9.96,-0.04,-0.01,-0.01,32.33
44294245,1893,1,199871,235270,0.59,-0.86,9.94,-0.04,-0.01,-0.01,32.33
44334191,1904,1,199951,235592,0.58,-0.86,9.94,-0.03,-0.01,-0.00,32.33
44374191,1925,1,200012,235888,0.58,-0.86,9.96,-0.03,-0.01,-0.00,32.33
44414191,1917,1,200316,236333,0.58,-0.88,9.96,-0.03,-0.01,-0.00,32.33
44454190,1939,1,200440,236792,0.59,-0.85,9.95,-0.03,-0.01,-0.00,32.33
44494228,1941,1,200537,236996,0.58,-0.86,9.97,-0.03,-0.01,-0.00,32.33
44534190,1904,1,200481,237046,0.60,-0.88,9.98,-0.03,-0.01,-0.01,32.33
44574190,1933,1,200641,237358,0.57,-0.88,9.96,-0.03,-0.01,-0.00,32.33
44614191,1930,1,200764,237799,0.60,-0.88,9.95,-0.03,-0.01,-0.00,32.33
44654188,1923,1,200829,237804,0.59,-0.88,9.96,-0.03,-0.01,-0.01,32.33
44694191,1914,1,200531,236130,0.58,-0.85,9.94,-0.03,-0.01,-0.00,32.33
44734190,1909,1,200063,234964,0.58,-0.87,9.99,-0.04,-0.01,-0.00,32.33
44774191,1911,1,199822,234344,0.58,-0.88,9.95,-0.04,-0.02,-0.01,32.33
44814191,1920,1,199732,234055,0.60,-0.88,9.95,-0.03,-0.01,-0.01,32.33
44854191,1899,1,199611,234025,0.60,-0.88,9.94,-0.03,-0.01,-0.00,32.33
44894188,1899,1,199613,234254,0.60,-0.87,9.96,-0.04,-0.01,-0.00,32.33
44934191,1899,1,199768,234718,0.58,-0.88,9.99,-0.04,-0.01,-0.00,32.33
44974191,1889,1,199825,235194,0.60,-0.90,9.94,-0.04,-0.01,-0.00,32.33
45014191,1925,1,199863,235424,0.59,-0.89,9.96,-0.04,-0.02,-0.00,32.33
45054877,1895,1,200010,235715,0.58,-0.88,9.97,-0.03,-0.01,-0.00,32.47
45095190,1859,1,200095,235957,0.62,-0.88,9.96,-0.03,-0.01,-0.00,32.47
45135191,1891,1,200244,236345,0.60,-0.88,9.95,-0.03,-0.01,-0.00,32.47
45175191,1862,1,200283,236532,0.61,-0.89,9.96,-0.03,-0.01,-0.00,32.47
45215190,1845,1,200364,236932,0.59,-0.88,9.95,-0.03,-0.01,-0.00,32.47
45255191,1843,1,200528,237203,0.60,-0.88,9.97,-0.03,-0.01,-0.01,32.47
45295190,1839,1,200609,237279,0.62,-0.89,9.98,-0.03,-0.01,-0.00,32.47
45335191,1847,1,200592,237240,0.60,-0.89,9.95,-0.03,-0.01,-0.00,32.47
45375188,1827,1,200673,237265,0.60,-0.87,9.97,-0.03,-0.01,-0.00,32.47
45415191,1840,1,200661,237276,0.60,-0.87,9.95,-0.03,-0.01,-0.00,32.47
45455187,1823,1,200551,236111,0.58,-0.88,9.95,-0.03,-0.01,-0.00,32.47
45495190,1845,1,199991,234624,0.60,-0.88,9.96,-0.03,-0.01,-0.00,32.47
45535188,1830,1,199549,233883,0.60,-0.88,9.94,-0.03,-0.01,-0.00,32.47
45575191,1788,1,199443,233742,0.60,-0.90,9.96,-0.03,-0.01,-0.00,32.47
45615187,1845,1,199558,234075,0.59,-0.91,9.97,-0.03,-0.01,-0.00,32.47
45655191,1842,1,199682,234502,0.58,-0.87,9.98,-0.03,-0.01,-0.00,32.47
45695191,1850,1,199776,235080,0.59,-0.87,9.95,-0.03,-0.01,-0.00,32.47
45735191,1819,1,199958,235418,0.59,-0.89,9.96,-0.03,-0.01,-0.00,32.47
45775190,1837,1,199927,235420,0.60,-0.89,9.95,-0.03,-0.00,-0.00,32.47
45815191,1814,1,199907,235194,0.58,-0.90,9.95,-0.03,-0.00,-0.00,32.47
45855187,1829,1,199803,235045,0.61,-0.89,9.92,-0.02,0.01,-0.01,32.47
45895171,1810,1,199804,235363,0.59,-0.86,9.94,-0.03,-0.00,-0.01,32.47
45935203,1840,1,199920,235758,0.58,-0.86,9.93,-0.03,-0.01,-0.00,32.47
45975191,1840,1,200049,236069,0.58,-0.86,9.95,-0.03,-0.01,-0.00,32.47
46015190,1835,1,200048,236179,0.56,-0.87,9.93,-0.04,-0.01,-0.00,32.47
46055877,1841,1,200034,236049,0.57,-0.86,9.92,-0.03,-0.00,-0.00,32.33
46094190,1838,1,200002,235806,0.58,-0.84,9.96,-0.03,-0.00,-0.01,32.33
46134233,1835,1,199988,235659,0.57,-0.85,9.98,-0.02,-0.00,-0.00,32.33
46174188,1835,1,200001,235533,0.56,-0.86,9.95,-0.04,-0.01,-0.00,32.33
46214190,1840,1,199826,234140,0.57,-0.85,9.93,-0.03,-0.01,-0.00,32.33
46254191,1841,1,199199,232046,0.57,-0.84,9.95,-0.04,-0.01,-0.00,32.33
46294191,1866,1,198584,230824,0.55,-0.86,9.98,-0.04,-0.01,-0.00,32.33
46334208,1835,1,198365,230697,0.58,-0.86,9.95,-0.03,-0.01,-0.00,32.33
46374191,1854,1,198532,231113,0.57,-0.87,9.94,-0.04,-0.01,-0.00,32.33
46414191,1874,1,198813,231878,0.60,-0.86,9.94,-0.04,-0.02,-0.00,32.33
46454190,1877,1,199149,232584,0.56,-0.89,9.94,-0.04,-0.01,-0.00,32.33
46494190,1862,1,199352,233094,0.59,-0.85,9.92,-0.03,-0.01,-0.00,32.33
46534190,1852,1,199450,233261,0.58,-0.86,9.96,-0.03,-0.01,-0.01,32.33
46574190,1894,1,199483,233504,0.57,-0.86,9.93,-0.03,-0.01,-0.00,32.33
46614191,1832,1,199571,233851,0.57,-0.87,9.98,-0.04,-0.01,-0.00,32.33
46654190,1897,1,199634,234284,0.58,-0.86,9.96,-0.03,-0.01,-0.00,32.33
46694191,1877,1,199821,234554,0.57,-0.86,9.99,-0.03,-0.01,-0.00,32.33
46734190,1854,1,199823,234719,0.57,-0.89,9.96,-0.03,-0.01,-0.00,32.33
46774191,1834,1,199788,234757,0.60,-0.86,9.94,-0.04,-0.01,-0.00,32.33
46814187,1842,1,199850,234684,0.57,-0.87,9.97,-0.03,-0.01,-0.00,32.33
46854190,1871,1,199789,234581,0.61,-0.86,9.96,-0.03,-0.01,-0.00,32.33
46894191,1860,1,199871,234478,0.56,-0.86,9.96,-0.03,-0.01,-0.00,32.33
46934190,1845,1,199785,233208,0.59,-0.87,9.96,-0.03,-0.01,-0.00,32.33
46974190,1809,1,199062,231309,0.56,-0.86,9.96,-0.03,-0.01,-0.00,32.33
47014190,1844,1,198668,230576,0.57,-0.86,9.97,-0.03,-0.01,-0.00,32.33
47054191,1840,1,198510,230429,0.58,-0.89,9.93,-0.03,-0.01,-0.00,32.33
47094877,1829,1,198497,230657,0.59,-0.88,9.94,-0.03,-0.01,-0.00,32.27
47133190,1842,1,198598,231312,0.59,-0.89,9.96,-0.04,-0.01,-0.00,32.27
47173190,1850,1,198978,232005,0.58,-0.87,9.96,-0.03,-0.01,-0.01,32.27
47213191,1886,1,199140,232302,0.58,-0.86,9.97,-0.03,-0.01,-0.00,32.27
47253191,1845,1,199168,232292,0.58,-0.85,9.96,-0.03,-0.01,-0.00,32.27
47293191,1853,1,199210,232224,0.60,-0.87,9.95,-0.03,-0.01,-0.00,32.27
47333191,1855,1,199297,232355,0.57,-0.86,9.96,-0.03,-0.01,-0.00,32.27
47373191,1854,1,199257,232204,0.60,-0.87,9.94,-0.03,-0.01,-0.00,32.27
47413191,1858,1,199260,232230,0.58,-0.86,9.97,-0.03,-0.01,-0.01,32.27
47453191,1856,1,199326,232327,0.59,-0.86,9.95,-0.03,-0.01,-0.00,32.27
47493191,1870,1,199318,232591,0.58,-0.86,9.95,-0.03,-0.01,-0.00,32.27
47533190,1877,1,199442,232643,0.59,-0.86,9.94,-0.03,-0.01,-0.00,32.27
47573196,1829,1,199485,232781,0.59,-0.88,9.96,-0.03,-0.01,-0.00,32.27
47613191,1894,1,199640,233055,0.59,-0.89,9.95,-0.03,-0.01,-0.00,32.27
47653190,1856,1,199662,232348,0.58,-0.87,9.97,-0.03,-0.01,-0.00,32.27
47693190,1887,1,199180,230703,0.60,-0.87,9.96,-0.04,-0.02,-0.00,32.27
47733190,1831,1,198780,230181,0.58,-0.87,9.96,-0.03,-0.01,-0.00,32.27
47773215,1867,1,198749,230282,0.58,-0.86,9.97,-0.03,-0.01,-0.00,32.27
47813191,1860,1,198735,230413,0.58,-0.88,9.95,-0.03,-0.01,-0.00,32.27
47853191,1863,1,198773,230505,0.57,-0.88,9.96,-0.03,-0.01,-0.00,32.27
47893190,1871,1,198942,231005,0.58,-0.90,9.98,-0.03,-0.01,-0.01,32.27
47933190,1886,1,199160,231591,0.59,-0.87,9.96,-0.03,-0.01,-0.00,32.27
47973205,1863,1,199289,231810,0.59,-0.86,9.94,-0.04,-0.02,-0.01,32.27
48013190,1847,1,199429,231889,0.58,-0.85,9.98,-0.03,-0.01,-0.00,32.27
48053191,1842,1,199440,231964,0.58,-0.89,9.95,-0.03,-0.01,-0.00,32.27
48093190,1877,1,199501,232116,0.56,-0.89,9.97,-0.03,-0.01,-0.00,32.27
48133877,1872,1,199697,232425,0.58,-0.86,9.96,-0.03,-0.01,-0.00,32.41
48174191,1865,1,199877,232668,0.58,-0.86,9.96,-0.03,-0.01,-0.00,32.41
48214190,1834,1,199932,232785,0.59,-0.88,9.96,-0.03,-0.01,-0.01,32.41
48254190,1829,1,199980,232777,0.57,-0.89,9.94,-0.03,-0.01,-0.00,32.41
48294191,1872,1,199924,232782,0.60,-0.85,9.96,-0.03,-0.01,-0.00,32.41
48334187,1833,1,200071,233408,0.59,-0.88,9.95,-0.04,-0.01,-0.00,32.41
48374191,1855,1,200401,234128,0.60,-0.88,9.96,-0.04,-0.01,-0.00,32.41
48414187,1831,1,200435,233301,0.60,-0.89,9.96,-0.04,-0.01,-0.00,32.41
48454190,1844,1,199829,231659,0.56,-0.89,9.95,-0.03,-0.01,-0.00,32.41
48494190,1851,1,199515,230998,0.58,-0.85,9.96,-0.03,-0.01,-0.00,32.41
48534190,1862,1,199358,230794,0.58,-0.86,9.94,-0.03,-0.01,-0.00,32.41
48574190,1842,1,199236,230661,0.58,-0.90,9.96,-0.03,-0.01,-0.00,32.41
48614190,1840,1,199418,231009,0.58,-0.86,9.94,-0.03,-0.01,-0.00,32.41
48654191,1837,1,199598,231349,0.59,-0.88,9.96,-0.03,-0.01,-0.00,32.41
48694190,1840,1,199613,231503,0.58,-0.86,9.94,-0.03,-0.01,-0.00,32.41
48734190,1872,1,199689,231701,0.59,-0.88,9.96,-0.04,-0.01,-0.00,32.41
48774190,1847,1,199694,231880,0.58,-0.86,9.95,-0.03,-0.01,-0.00,32.41
48814190,1838,1,199883,232299,0.58,-0.88,9.96,-0.03,-0.01,-0.00,32.41
48854190,1863,1,200033,232833,0.58,-0.86,9.93,-0.03,-0.01,-0.00,32.41
48894190,1902,1,200268,233467,0.60,-0.88,9.95,-0.04,-0.01,-0.00,32.41
48934190,1893,1,200363,233886,0.60,-0.87,9.96,-0.03,-0.01,-0.01,32.41
48974190,1874,1,200416,234269,0.58,-0.88,9.93,-0.03,-0.01,-0.00,32.41
49014190,1871,1,200639,234662,0.59,-0.89,9.94,-0.03,-0.01,-0.00,32.41
49054190,1861,1,200744,234914,0.60,-0.89,9.97,-0.03,-0.01,-0.00,32.41
49094190,1849,1,200711,235003,0.58,-0.90,9.95,-0.03,-0.01,-0.00,32.41
49134874,1861,1,200843,235240,0.60,-0.87,9.98,-0.03,-0.01,-0.00,32.13
49173190,1857,1,200950,234718,0.60,-0.87,9.96,-0.03,-0.01,-0.00,32.13
49213187,1862,1,200469,232411,0.59,-0.89,9.94,-0.03,-0.01,-0.00,32.13
49253190,1873,1,199771,230795,0.60,-0.87,9.95,-0.03,-0.01,-0.00,32.13
49293187,1868,1,199354,230341,0.61,-0.89,9.97,-0.03,-0.01,-0.00,32.13
49333190,1861,1,199406,230256,0.59,-0.87,9.95,-0.03,-0.01,-0.00,32.13
49373190,1843,1,199439,230395,0.58,-0.89,9.97,-0.03,-0.01,-0.01,32.13
49413229,1824,1,199568,231039,0.60,-0.87,9.97,-0.03,-0.01,-0.00,32.13
49453188,1843,1,199878,231655,0.62,-0.87,9.96,-0.03,-0.01,-0.00,32.13
49493190,1854,1,200005,231828,0.58,-0.86,9.94,-0.03,-0.01,-0.00,32.13
49533190,1858,1,200023,231909,0.60,-0.88,9.95,-0.03,-0.01,-0.00,32.13
49573190,1850,1,200012,231945,0.59,-0.86,9.98,-0.03,-0.01,-0.01,32.13
49613218,1847,1,200028,232169,0.59,-0.87,9.95,-0.03,-0.01,-0.00,32.13
49653190,1840,1,200214,232567,0.58,-0.87,9.96,-0.03,-0.01,-0.00,32.13
49693190,1836,1,200223,232892,0.60,-0.89,9.96,-0.03,-0.01,-0.00,32.13
49733190,1840,1,200348,233143,0.59,-0.86,9.96,-0.03,-0.01,-0.00,32.13
49773190,1828,1,200424,233250,0.59,-0.88,9.96,-0.03,-0.01,-0.00,32.13
49813190,1856,1,200442,233405,0.60,-0.87,9.95,-0.03,-0.01,-0.00,32.13
49853187,1844,1,200580,233517,0.59,-0.86,9.95,-0.03,-0.01,-0.01,32.13
49893191,1875,1,200644,233615,0.58,-0.87,9.95,-0.03,-0.01,-0.00,32.13
49933190,1852,1,200649,233308,0.60,-0.85,9.96,-0.03,-0.01,-0.00,32.13
49973190,1835,1,200146,231267,0.60,-0.87,9.96,-0.03,-0.01,-0.00,32.13
50013187,1872,1,199397,229823,0.58,-0.87,9.96,-0.03,-0.01,-0.00,32.13
50053190,1872,1,199234,229598,0.58,-0.87,9.95,-0.03,-0.01,-0.00,32.13
50093190,1862,1,199160,229558,0.58,-0.88,9.97,-0.03,-0.01,-0.00,32.13
50133190,1856,1,199238,229953,0.59,-0.87,9.95,-0.03,-0.01,-0.00,32.13
50173877,1851,1,199433,230484,0.60,-0.86,9.95,-0.03,-0.01,-0.00,32.17
50212190,1857,1,199708,230915,0.59,-0.88,9.96,-0.03,-0.01,-0.00,32.17
50252190,1840,1,199825,231080,0.61,-0.87,9.94,-0.03,-0.01,-0.00,32.17
50292190,1872,1,199816,231238,0.60,-0.86,9.94,-0.03,-0.01,-0.00,32.17
50332187,1872,1,199847,231410,0.59,-0.87,9.96,-0.03,-0.01,-0.00,32.17
50372191,1872,1,200064,231826,0.59,-0.86,9.95,-0.03,-0.01,-0.00,32.17
50412190,1895,1,200204,232463,0.60,-0.87,9.96,-0.03,-0.01,-0.00,32.17
50452190,1862,1,200432,233034,0.61,-0.88,9.93,-0.03,-0.01,-0.01,32.17
50492190,1863,1,200606,233431,0.58,-0.87,9.96,-0.03,-0.01,-0.00,32.17
50532190,1871,1,200648,233683,0.58,-0.86,9.96,-0.03,-0.01,-0.00,32.17
50572190,1883,1,200794,233861,0.59,-0.86,9.93,-0.03,-0.01,-0.00,32.17
50612190,1899,1,200829,234204,0.60,-0.87,9.96,-0.03,-0.01,-0.00,32.17
50652187,1885,1,201046,234473,0.60,-0.87,9.98,-0.03,-0.01,-0.00,32.17
50692190,1867,1,201098,233748,0.59,-0.88,9.98,-0.03,-0.01,-0.00,32.17
50732190,1863,1,200526,231655,0.60,-0.90,9.94,-0.03,-0.01,-0.01,32.17
50772191,1863,1,199820,230518,0.61,-0.86,9.94,-0.03,-0.01,-0.00,32.17
50812190,1873,1,199715,230279,0.59,-0.86,9.96,-0.03,-0.01,-0.00,32.17
50852191,1872,1,199704,230341,0.60,-0.88,9.93,-0.03,-0.01,-0.00,32.17
50892188,1874,1,199709,230431,0.60,-0.88,9.98,-0.03,-0.01,-0.00,32.17
50932190,1870,1,199676,230587,0.58,-0.88,9.96,-0.03,-0.01,-0.00,32.17
50972191,1863,1,199667,230563,0.60,-0.87,9.97,-0.03,-0.01,-0.01,32.17
51012191,1840,1,199732,230626,0.57,-0.87,9.96,-0.03,-0.01,-0.00,32.17
51052217,1859,1,199769,230833,0.59,-0.87,9.96,-0.03,-0.01,-0.00,32.17
51092190,1860,1,199909,231035,0.59,-0.88,9.93,-0.03,-0.01,-0.00,32.17
51132190,1856,1,200017,231177,0.59,-0.88,9.96,-0.03,-0.01,-0.00,32.17
51172190,1865,1,200060,231267,0.60,-0.86,9.98,-0.03,-0.01,-0.00,32.17
51212874,1831,1,200205,231649,0.60,-0.88,9.95,-0.03,-0.01,-0.00,32.21
51253196,1847,1,200395,231887,0.58,-0.87,9.97,-0.04,-0.01,-0.00,32.21
51293191,1835,1,200443,232086,0.60,-0.87,9.97,-0.03,-0.01,-0.01,32.21
51333191,1849,1,200573,232258,0.60,-0.89,9.96,-0.03,-0.01,-0.00,32.21
51373188,1855,1,200654,232594,0.59,-0.88,9.94,-0.03,-0.01,-0.00,32.21
51413190,1861,1,200817,233023,0.59,-0.87,9.97,-0.03,-0.01,-0.00,32.21
51453190,1889,1,200901,232913,0.59,-0.88,9.96,-0.03,-0.01,-0.00,32.21
51493190,1877,1,200483,230603,0.59,-0.87,9.94,-0.03,-0.01,-0.00,32.21
51533190,1853,1,199640,228900,0.59,-0.88,9.97,-0.03,-0.01,-0.00,32.21
51573190,1851,1,199341,228839,0.58,-0.87,9.93,-0.04,-0.01,-0.00,32.21
51613190,1856,1,199490,228982,0.59,-0.84,9.95,-0.03,-0.01,-0.00,32.21
51653191,1850,1,199463,229020,0.61,-0.86,9.94,-0.03,-0.01,-0.00,32.21
51693191,1865,1,199429,229462,0.58,-0.87,9.96,-0.03,-0.01,-0.00,32.21
51733191,1843,1,199710,230245,0.60,-0.90,9.96,-0.03,-0.01,-0.00,32.21
51773187,1850,1,199752,230487,0.60,-0.87,9.95,-0.03,-0.01,-0.00,32.21
51813191,1819,1,199780,230546,0.58,-0.89,9.95,-0.03,-0.01,-0.00,32.21
51853191,1882,1,199851,230870,0.60,-0.87,9.94,-0.03,-0.01,-0.00,32.21
51893191,1855,1,199935,231176,0.60,-0.86,9.95,-0.03,-0.01,-0.01,32.21
51933190,1852,1,199958,231605,0.59,-0.87,9.96,-0.03,-0.01,-0.01,32.21
51973190,1857,1,200092,232035,0.58,-0.88,9.96,-0.03,-0.01,-0.00,32.21
52013190,1834,1,200243,232296,0.58,-0.87,9.95,-0.03,-0.01,-0.00,32.21
52053190,1862,1,200352,232492,0.59,-0.90,9.96,-0.04,-0.01,-0.00,32.21
52093187,1854,1,200345,232839,0.59,-0.89,9.98,-0.03,-0.01,-0.00,32.21
52133191,1878,1,200500,233224,0.59,-0.88,9.95,-0.03,-0.01,-0.00,32.21
52173190,1829,1,200580,233624,0.58,-0.87,9.93,-0.03,-0.01,-0.00,32.21
52213877,1831,1,200704,233812,0.59,-0.87,9.97,-0.03,-0.01,-0.01,32.41
52252190,1856,1,200728,233146,0.61,-0.87,9.96,-0.03,-0.01,-0.00,32.41
52292190,1824,1,200167,230848,0.58,-0.87,9.96,-0.03,-0.01,-0.00,32.41
52332191,1829,1,199502,229675,0.57,-0.87,9.95,-0.03,-0.01,-0.00,32.41
52372190,1825,1,199328,229502,0.59,-0.87,9.95,-0.03,-0.01,-0.00,32.41
52412190,1840,1,199369,229615,0.59,-0.87,9.97,-0.03,-0.01,-0.00,32.41
52452190,1840,1,199561,229920,0.60,-0.87,9.95,-0.03,-0.01,-0.00,32.41
52492188,1809,1,199764,230556,0.59,-0.86,9.96,-0.03,-0.01,-0.00,32.41
52532190,1826,1,199934,231187,0.59,-0.85,9.95,-0.04,-0.01,-0.00,32.41
52572190,1879,1,200214,231513,0.59,-0.88,9.96,-0.03,-0.01,-0.00,32.41
52612191,1865,1,200284,231823,0.60,-0.89,9.95,-0.03,-0.01,-0.00,32.41
52652188,1866,1,200327,232161,0.61,-0.88,9.94,-0.03,-0.01,-0.00,32.41
52691228,1872,1,200461,232483,0.59,-0.87,9.95,-0.03,-0.01,-0.00,32.41
52731190,1872,1,200591,232937,0.59,-0.88,9.99,-0.03,-0.01,-0.00,32.41
52771190,1879,1,200697,233535,0.58,-0.87,9.95,-0.03,-0.01,-0.00,32.41
52811190,1877,1,200955,234087,0.60,-0.87,9.98,-0.04,-0.01,-0.01,32.41
52851191,1878,1,201110,234423,0.61,-0.86,9.97,-0.03,-0.01,-0.00,32.41
52891208,1883,1,201085,234947,0.59,-0.89,9.98,-0.03,-0.01,-0.00,32.41
52931191,1866,1,201278,235396,0.58,-0.88,9.95,-0.03,-0.01,-0.00,32.41
52971190,1841,1,201360,235696,0.60,-0.88,9.97,-0.03,-0.01,-0.00,32.41
53011191,1904,1,201321,235182,0.60,-0.89,9.94,-0.03,-0.01,-0.00,32.41
53051188,1861,1,200839,233426,0.60,-0.88,9.94,-0.04,-0.01,-0.01,32.41
53091191,1936,1,200309,232008,0.58,-0.89,9.97,-0.03,-0.00,-0.00,32.41
53131188,1846,1,199649,229742,0.58,-0.89,9.97,-0.01,0.01,-0.00,32.41
53171171,2446,1,198768,227778,0.52,-0.86,9.98,0.02,-0.03,0.00,32.41
53211159,3831,1,198669,229608,0.78,-0.90,9.86,-0.07,0.03,-0.01,32.41
53251856,1837,1,198554,231481,0.59,-0.89,9.94,-0.04,0.00,-0.01,32.17
53292168,1581,1,198518,232450,0.51,-0.86,9.99,-0.03,-0.01,-0.01,32.17
53332191,1527,1,198397,232970,0.58,-0.86,9.95,-0.04,-0.01,-0.01,32.17
53372191,1584,1,198340,233391,0.58,-0.87,9.95,-0.04,-0.01,-0.01,32.17
53412191,1526,1,198414,234054,0.55,-0.86,9.95,-0.04,-0.02,-0.00,32.17
53452190,1635,1,198627,234860,0.58,-0.86,9.95,-0.04,-0.01,-0.00,32.17
53492190,1712,1,198619,235388,0.59,-0.85,9.95,-0.03,-0.01,-0.01,32.17
53532190,1721,1,198808,236098,0.55,-0.87,9.95,-0.04,-0.01,-0.01,32.17
53572190,1767,1,198929,236532,0.57,-0.86,9.95,-0.03,-0.01,-0.01,32.17
53612190,1797,1,198879,236751,0.58,-0.85,9.99,-0.03,-0.01,-0.01,32.17
53652191,1743,1,198977,236912,0.56,-0.87,9.97,-0.03,-0.01,-0.01,32.17
53692190,1869,1,198851,236762,0.55,-0.87,9.95,-0.03,-0.01,-0.00,32.17
53731190,1951,1,198755,235094,0.60,-0.85,9.95,-0.03,-0.02,-0.00,32.17
53771188,1911,1,197823,232018,0.58,-0.87,9.99,-0.04,-0.02,-0.01,32.17
53811191,1922,1,197330,231196,0.56,-0.89,9.94,-0.04,-0.02,-0.00,32.17
53851190,1931,1,197234,231381,0.59,-0.87,9.93,-0.04,-0.01,-0.01,32.17
53891190,1893,1,197253,231784,0.58,-0.86,9.97,-0.04,-0.01,-0.00,32.17
53931190,1929,1,197437,232560,0.57,-0.89,9.98,-0.04,-0.01,-0.01,32.17
53971190,1885,1,197701,233779,0.57,-0.88,9.96,-0.03,-0.01,-0.01,32.17
54011191,1776,1,197953,234468,0.57,-0.86,9.95,-0.03,-0.01,-0.01,32.17
54051191,1862,1,198000,234695,0.57,-0.89,9.95,-0.03,-0.01,-0.01,32.17
54091190,1757,1,197991,234845,0.57,-0.87,9.97,-0.04,-0.02,-0.01,32.17
54131191,1963,1,198072,235597,0.59,-0.88,9.93,-0.03,-0.01,-0.00,32.17
54171191,2030,1,198275,236255,0.57,-0.90,9.96,-0.03,-0.01,-0.01,32.17
54211190,1991,1,198460,236945,0.57,-0.87,9.94,-0.03,-0.01,-0.01,32.17
54251877,1923,1,198770,237567,0.60,-0.86,9.96,-0.04,-0.01,-0.01,31.97
54292190,1853,1,198850,237739,0.57,-0.88,9.95,-0.03,-0.01,-0.00,31.97
54332191,1742,1,198787,237958,0.56,-0.88,9.96,-0.03,-0.01,-0.00,31.97
54372190,1682,1,198851,238388,0.56,-0.87,9.97,-0.03,-0.01,-0.00,31.97
54412190,1641,1,198908,238604,0.57,-0.88,9.96,-0.03,-0.01,-0.00,31.97
54452190,1594,1,198792,237077,0.57,-0.88,9.95,-0.03,-0.01,-0.00,31.97
54492190,1650,1,198058,234717,0.55,-0.88,9.98,-0.04,-0.01,-0.01,31.97
54532194,1501,1,197531,233847,0.58,-0.87,9.94,-0.03,-0.01,-0.00,31.97
54572190,1695,1,197366,233507,0.57,-0.89,9.97,-0.03,-0.01,-0.00,31.97
54612190,1627,1,197234,233446,0.57,-0.88,9.96,-0.03,-0.01,-0.00,31.97
54652190,1664,1,197254,233594,0.60,-0.87,9.94,-0.03,-0.01,-0.00,31.97
54692190,1573,1,197403,234385,0.57,-0.89,9.96,-0.03,-0.01,-0.00,31.97
54732190,1634,1,197555,234704,0.57,-0.88,9.96,-0.03,-0.01,-0.00,31.97
54772191,1691,1,197654,234846,0.59,-0.86,9.96,-0.03,-0.01,-0.00,31.97
54812191,1569,1,197814,235473,0.60,-0.89,9.96,-0.03,-0.01,-0.01,31.97
54852190,1664,1,198117,236273,0.57,-0.88,9.97,-0.03,-0.01,-0.00,31.97
54890190,1700,1,198249,236773,0.55,-0.89,9.95,-0.03,-0.01,-0.01,31.97
54930191,1777,1,198401,237144,0.57,-0.89,9.96,-0.03,-0.01,-0.00,31.97
54970190,1777,1,198585,237537,0.56,-0.88,9.94,-0.03,-0.01,-0.00,31.97
55010190,1792,1,198690,238195,0.58,-0.89,9.95,-0.04,-0.01,-0.00,31.97
55050190,1855,1,199121,238980,0.58,-0.86,9.94,-0.03,-0.01,-0.01,31.97
55090191,1739,1,199408,239592,0.58,-0.86,9.99,-0.03,-0.01,-0.01,31.97
55130191,1725,1,199688,239696,0.57,-0.90,9.96,-0.03,-0.01,-0.01,31.97
55170190,1943,1,199340,237659,0.58,-0.88,9.97,-0.03,-0.01,-0.01,31.97
55210190,1715,1,198852,236827,0.57,-0.88,9.95,-0.03,-0.01,-0.01,31.97
55250191,1729,1,198954,237009,0.58,-0.87,9.96,-0.03,-0.01,-0.01,31.97
55290877,1904,1,199287,237800,0.58,-0.88,9.95,-0.04,-0.01,-0.01,32.03
55331191,1665,1,199574,237997,0.55,-0.89,9.98,-0.03,-0.01,-0.01,32.03
55371191,1878,1,199793,238817,0.57,-0.87,9.95,-0.03,-0.01,-0.01,32.03
55411191,1863,1,200134,239630,0.57,-0.87,9.94,-0.03,-0.01,-0.00,32.03
55451190,1847,1,200257,239424,0.57,-0.89,9.95,-0.03,-0.02,-0.01,32.03
55491190,1907,1,200237,239836,0.57,-0.88,9.93,-0.03,-0.01,-0.00,32.03
55531191,1921,1,200599,240667,0.59,-0.88,9.93,-0.03,-0.01,-0.00,32.03
55571191,1909,1,201116,241925,0.59,-0.90,9.96,-0.03,-0.01,-0.01,32.03
55611190,1883,1,201569,242393,0.57,-0.88,9.96,-0.03,-0.01,-0.01,32.03
55651191,1936,1,201594,242612,0.58,-0.89,9.92,-0.03,-0.01,-0.00,32.03
55691191,1948,1,201753,242724,0.57,-0.88,9.96,-0.03,-0.01,-0.00,32.03
55731191,1954,1,201641,242241,0.57,-0.90,9.96,-0.03,-0.02,-0.00,32.03
55771188,1933,1,201352,241931,0.60,-0.86,9.95,-0.03,-0.02,-0.00,32.03
55811190,1943,1,201108,241549,0.60,-0.89,9.96,-0.03,-0.01,-0.00,32.03
55851188,1859,1,200810,239529,0.57,-0.88,9.93,-0.03,-0.01,-0.00,32.03
55891190,1950,1,199906,237304,0.57,-0.88,9.95,-0.03,-0.01,-0.00,32.03
55931190,1842,1,199324,236243,0.60,-0.89,9.95,-0.03,-0.01,-0.00,32.03
55971205,1903,1,199046,235828,0.56,-0.88,9.99,-0.03,-0.01,-0.00,32.03
56011190,1855,1,198885,235447,0.56,-0.89,9.97,-0.03,-0.01,-0.00,32.03
56051190,2019,1,198689,235103,0.60,-0.87,9.95,-0.03,-0.01,-0.00,32.03
56091188,2131,1,198462,234873,0.55,-0.88,9.97,-0.03,-0.01,-0.00,32.03
56131190,1904,1,198298,234737,0.58,-0.87,9.94,-0.03,-0.01,-0.00,32.03
56171192,2055,1,198252,234590,0.59,-0.88,9.98,-0.03,-0.01,-0.00,32.03
56211191,2035,1,198258,234378,0.58,-0.88,9.96,-0.03,-0.01,-0.00,32.03
56251191,2014,1,198077,234306,0.56,-0.87,9.96,-0.03,-0.01,-0.00,32.03
56291878,1951,1,198025,234284,0.58,-0.88,9.94,-0.03,-0.01,-0.00,32.11
56330191,1894,1,197960,234182,0.59,-0.87,9.96,-0.03,-0.01,-0.00,32.11
56370196,1936,1,198003,234294,0.56,-0.87,9.95,-0.03,-0.01,-0.00,32.11
56410190,1926,1,198055,234564,0.59,-0.87,9.96,-0.03,-0.01,-0.00,32.11
56450191,1889,1,198039,234889,0.57,-0.87,9.95,-0.03,-0.01,-0.00,32.11
56490191,1863,1,198151,234647,0.58,-0.88,9.97,-0.03,-0.01,-0.00,32.11
56530191,1818,1,197832,233041,0.55,-0.85,9.95,-0.03,-0.01,-0.00,32.11
56570191,1836,1,197144,231447,0.58,-0.88,9.95,-0.03,-0.01,-0.00,32.11
56610191,1786,1,196698,230164,0.59,-0.88,9.97,-0.03,-0.01,-0.00,32.11
56650191,1778,1,196344,229581,0.57,-0.88,9.96,-0.03,-0.01,-0.00,32.11
56690191,1789,1,196141,229372,0.58,-0.87,9.97,-0.03,-0.02,-0.00,32.11
56730191,1782,1,196134,229422,0.58,-0.88,9.95,-0.04,-0.01,-0.00,32.11
56770190,1823,1,196179,229568,0.58,-0.90,9.94,-0.03,-0.01,-0.00,32.11
56811188,1857,1,196239,229812,0.58,-0.88,9.94,-0.03,-0.01,-0.00,32.11
56851191,1872,1,196232,230033,0.58,-0.85,9.94,-0.03,0.00,-0.01,32.11
56891171,1797,1,196347,231073,0.58,-0.87,9.94,-0.03,-0.00,-0.01,32.11
56931191,1841,1,197061,234238,0.58,-0.89,9.94,-0.04,-0.00,-0.00,32.11
56971190,1875,1,198700,238576,0.57,-0.87,9.97,-0.04,0.01,-0.01,32.11
57011170,1904,1,199907,239609,0.53,-0.85,9.98,-0.03,-0.01,-0.01,32.11
57051191,1877,1,199806,239649,0.56,-0.85,9.96,-0.03,-0.03,-0.00,32.11
57091191,1839,1,199977,240987,0.58,-0.86,9.95,-0.04,-0.03,-0.00,32.11
57131190,1859,1,200521,242097,0.57,-0.87,9.97,-0.04,-0.01,-0.00,32.11
57171191,1861,1,200624,242383,0.54,-0.85,9.94,-0.03,-0.02,-0.00,32.11
57211188,1869,1,200559,241462,0.59,-0.86,9.97,-0.03,-0.01,-0.00,32.11
57251191,1855,1,199569,237710,0.59,-0.88,9.96,-0.03,-0.01,-0.00,32.11
57291875,1872,1,198153,235354,0.57,-0.88,9.95,-0.03,-0.01,-0.00,32.13
57330191,1879,1,197620,234299,0.55,-0.87,9.95,-0.03,-0.02,-0.00,32.13
57370188,1872,1,197102,233493,0.59,-0.86,9.97,-0.03,-0.02,0.00,32.13
57410171,1846,1,196857,233023,0.62,-0.87,9.95,-0.03,-0.01,0.00,32.13
57450168,1808,1,196682,233202,0.60,-0.89,9.94,-0.03,-0.01,-0.00,32.13
57490191,1856,1,196747,233373,0.61,-0.88,9.98,-0.04,-0.01,-0.00,32.13
57530191,1825,1,196803,233351,0.60,-0.86,9.96,-0.04,-0.01,-0.01,32.13
57570190,1832,1,196771,233460,0.57,-0.87,9.93,-0.03,-0.01,-0.00,32.13
57610191,1840,1,196743,233445,0.58,-0.90,9.96,-0.03,-0.01,-0.00,32.13
57650191,1862,1,196780,233798,0.58,-0.88,9.93,-0.03,-0.01,-0.00,32.13
57690190,1869,1,196897,234186,0.58,-0.85,9.94,-0.03,-0.01,-0.00,32.13
57730190,1839,1,197070,234562,0.59,-0.86,9.95,-0.03,-0.01,-0.00,32.13
57770191,1840,1,197200,234860,0.60,-0.88,9.94,-0.03,-0.01,-0.00,32.13
57810227,1877,1,197174,234985,0.58,-0.89,9.98,-0.03,-0.01,-0.00,32.13
57850190,1883,1,197242,235156,0.58,-0.85,9.96,-0.03,-0.01,-0.00,32.13
57890191,1865,1,197280,235406,0.60,-0.87,9.95,-0.03,-0.01,-0.00,32.13
57930187,1872,1,197426,235549,0.59,-0.88,9.95,-0.03,-0.01,-0.00,32.13
57970191,1859,1,197398,235061,0.59,-0.89,9.94,-0.03,-0.01,-0.00,32.13
58010222,1843,1,196898,233143,0.62,-0.86,9.95,-0.03,-0.01,-0.00,32.13
58050191,1883,1,196474,232704,0.61,-0.86,9.95,-0.03,-0.01,-0.00,32.13
58090191,1883,1,196441,232775,0.61,-0.86,9.96,-0.04,-0.02,-0.00,32.13
58130190,1901,1,196553,232856,0.60,-0.86,9.96,-0.04,-0.01,-0.00,32.13
58170188,1868,1,196474,233063,0.60,-0.88,9.96,-0.03,-0.01,-0.00,32.13
58210190,1870,1,196657,233553,0.60,-0.86,9.95,-0.03,-0.01,-0.00,32.13
58250187,1889,1,196734,233799,0.60,-0.87,9.95,-0.03,-0.01,-0.01,32.13
58290190,1877,1,196748,233736,0.61,-0.86,9.94,-0.03,-0.01,-0.00,32.13
58330877,1855,1,196807,233804,0.60,-0.88,9.94,-0.03,-0.01,-0.00,32.11
58369190,1937,1,196687,233889,0.59,-0.90,9.97,-0.03,-0.01,-0.00,32.11
58409188,1925,1,196858,234038,0.60,-0.88,9.97,-0.03,-0.01,-0.00,32.11
58449191,1952,1,196901,234256,0.61,-0.89,9.97,-0.03,-0.01,-0.01,32.11
58489191,1927,1,197032,234575,0.61,-0.86,9.96,-0.03,-0.01,-0.00,32.11
58529191,1886,1,197089,234896,0.61,-0.88,9.96,-0.03,-0.01,-0.00,32.11
58569190,1920,1,197251,235218,0.60,-0.88,9.94,-0.03,-0.01,-0.00,32.11
58609191,1903,1,197383,235552,0.62,-0.89,9.98,-0.03,-0.01,-0.00,32.11
58649190,1936,1,197491,235965,0.59,-0.87,9.95,-0.03,-0.01,-0.01,32.11
58689190,1918,1,197442,235126,0.60,-0.88,9.95,-0.03,-0.01,-0.01,32.11
58729191,1916,1,196800,233279,0.61,-0.88,9.96,-0.03,-0.01,-0.00,32.11
58769191,1891,1,196484,232829,0.61,-0.89,9.96,-0.03,-0.01,-0.00,32.11
58809191,1911,1,196359,232903,0.60,-0.85,9.94,-0.03,-0.01,-0.00,32.11
58849191,1905,1,196431,232853,0.58,-0.89,9.95,-0.03,-0.01,-0.00,32.11
58889190,1914,1,196424,233153,0.60,-0.89,9.96,-0.03,-0.01,-0.00,32.11
58929191,1918,1,196548,233618,0.61,-0.89,9.97,-0.03,-0.01,-0.00,32.11
58969191,1901,1,196666,233786,0.58,-0.88,9.96,-0.03,-0.01,-0.00,32.11
59009191,1894,1,196640,233781,0.59,-0.89,9.96,-0.03,-0.01,-0.00,32.11
59049191,1879,1,196609,233805,0.58,-0.88,9.96,-0.03,-0.01,-0.00,32.11
59089191,1872,1,196622,233864,0.61,-0.88,9.95,-0.03,-0.01,-0.00,32.11
59129190,1879,1,196690,234008,0.60,-0.88,10.00,-0.03,-0.01,-0.00,32.11
59169191,1920,1,196762,234299,0.62,-0.88,9.96,-0.03,-0.01,-0.00,32.11
59209191,1889,1,196746,234523,0.59,-0.87,9.94,-0.03,-0.01,-0.00,32.11
59249191,1888,1,196898,235055,0.59,-0.87,9.94,-0.03,-0.01,-0.00,32.11
59289191,1877,1,197028,235394,0.60,-0.89,9.98,-0.03,-0.01,-0.00,32.11
59329191,1895,1,197157,235618,0.59,-0.87,9.94,-0.03,-0.01,-0.00,32.11
59369877,1833,1,197211,235731,0.60,-0.86,9.95,-0.03,-0.01,-0.00,32.11
59410190,1840,1,197234,235461,0.60,-0.88,9.95,-0.03,-0.01,-0.00,32.11
59450208,1873,1,196719,233515,0.61,-0.89,9.96,-0.03,-0.01,-0.00,32.11
59490190,1862,1,196324,232970,0.61,-0.88,9.92,-0.03,-0.01,-0.00,32.11
59530191,1895,1,196184,232881,0.60,-0.85,9.96,-0.03,-0.01,-0.00,32.11
59570191,1872,1,196176,232927,0.62,-0.89,9.96,-0.03,-0.01,-0.00,32.11
59610190,1894,1,196231,232901,0.61,-0.87,9.95,-0.03,-0.01,-0.00,32.11
59650221,1861,1,196288,233263,0.60,-0.88,9.95,-0.03,-0.01,-0.00,32.11
59690188,1858,1,196394,233632,0.61,-0.88,9.94,-0.03,-0.01,-0.00,32.11
59730190,1872,1,196441,233844,0.60,-0.88,9.93,-0.03,-0.01,-0.00,32.11
59770188,1867,1,196541,233941,0.61,-0.87,9.95,-0.03,-0.01,-0.00,32.11
59810191,1840,1,196633,234278,0.60,-0.89,9.96,-0.03,-0.01,-0.00,32.11
59850203,1879,1,196730,234591,0.62,-0.87,9.93,-0.03,-0.01,-0.00,32.11
59890191,1871,1,196833,234837,0.60,-0.89,9.96,-0.03,-0.01,-0.00,32.11
59930188,1851,1,196925,235243,0.61,-0.88,9.96,-0.03,-0.01,-0.00,32.11
59970191,1866,1,197066,235647,0.61,-0.88,9.94,-0.04,-0.01,-0.00,32.11
60010191,1890,1,197169,235927,0.61,-0.88,9.96,-0.03,-0.01,-0.00,32.11
60050191,1861,1,197255,236111,0.59,-0.87,9.97,-0.03,-0.01,-0.00,32.11
60090191,1829,1,197359,236327,0.59,-0.89,9.95,-0.03,-0.01,-0.00,32.11
60130191,1860,1,197442,236591,0.60,-0.87,9.96,-0.03,-0.01,-0.00,32.11
60170188,1872,1,197573,236141,0.60,-0.87,9.97,-0.03,-0.01,-0.00,32.11
60210191,1837,1,196897,233805,0.60,-0.88,9.97,-0.03,-0.01,-0.00,32.11
60250188,1840,1,196350,233049,0.61,-0.89,9.96,-0.03,-0.01,-0.00,32.11
60290203,1887,1,196270,232932,0.59,-0.87,9.95,-0.03,-0.01,-0.00,32.11
60330191,1866,1,196292,233020,0.60,-0.86,9.95,-0.03,-0.01,-0.00,32.11
60370877,1853,1,196229,233243,0.61,-0.88,9.94,-0.03,-0.01,-0.00,32.17
60409190,1871,1,196374,233651,0.61,-0.90,9.97,-0.03,-0.01,-0.00,32.17
60449190,1875,1,196515,233953,0.59,-0.89,9.97,-0.03,-0.01,-0.00,32.17
60489194,1861,1,196506,233990,0.61,-0.89,9.95,-0.03,-0.01,-0.00,32.17
60529191,1877,1,196529,234127,0.61,-0.88,9.97,-0.03,-0.01,-0.00,32.17
60569190,1885,1,196640,234581,0.61,-0.88,9.93,-0.04,-0.01,-0.00,32.17
60609191,1897,1,196826,234922,0.60,-0.88,9.96,-0.03,-0.01,-0.00,32.17
60649187,1882,1,196879,234952,0.62,-0.88,9.95,-0.03,-0.01,-0.00,32.17
60689191,1839,1,196819,235132,0.60,-0.90,9.95,-0.03,-0.01,-0.00,32.17
60729187,1875,1,196932,235580,0.60,-0.89,9.96,-0.03,-0.01,-0.00,32.17
60769190,1874,1,197078,235989,0.59,-0.87,9.97,-0.03,-0.01,-0.00,32.17
60809190,1873,1,197113,236252,0.61,-0.88,9.95,-0.03,-0.01,-0.00,32.17
60849190,1902,1,197158,236250,0.62,-0.88,9.97,-0.03,-0.01,-0.00,32.17
60889191,1883,1,197163,236379,0.59,-0.86,9.95,-0.03,-0.01,-0.01,32.17
60929191,1879,1,197307,236613,0.61,-0.88,9.95,-0.03,-0.01,-0.00,32.17
60969190,1851,1,197073,234651,0.60,-0.89,9.96,-0.04,-0.01,-0.00,32.17
61009190,1862,1,196425,233642,0.59,-0.87,9.95,-0.03,-0.01,-0.01,32.17
61049191,1872,1,196279,233466,0.62,-0.89,9.95,-0.03,-0.01,-0.00,32.17
61089207,1893,1,196213,233510,0.60,-0.86,9.97,-0.03,-0.01,-0.00,32.17
61129187,1831,1,196275,233732,0.62,-0.88,9.95,-0.03,-0.01,-0.00,32.17
61169190,1845,1,196383,234390,0.61,-0.87,9.94,-0.03,-0.01,-0.01,32.17
61209190,1840,1,196676,235183,0.62,-0.89,9.95,-0.03,-0.01,-0.01,32.17
61249191,1865,1,196760,235319,0.60,-0.86,9.98,-0.03,-0.01,-0.00,32.17
61289234,1860,1,196808,235442,0.60,-0.88,9.95,-0.04,-0.01,-0.00,32.17
61329190,1885,1,196865,235974,0.62,-0.87,9.95,-0.04,-0.01,-0.00,32.17
61369190,1891,1,197084,236736,0.61,-0.87,9.95,-0.04,-0.01,-0.00,32.17
61409877,1861,1,197276,237238,0.60,-0.90,9.96,-0.04,-0.01,-0.00,31.95
61450187,1857,1,197344,237347,0.61,-0.90,9.95,-0.03,-0.01,-0.00,31.95
61490190,1853,1,197411,237522,0.61,-0.89,9.95,-0.03,-0.01,-0.00,31.95
61528190,1909,1,197518,237919,0.61,-0.89,9.93,-0.03,-0.01,-0.00,31.95
61568190,1891,1,197653,238388,0.61,-0.90,9.96,-0.03,-0.01,-0.00,31.95
61608187,1923,1,197694,238553,0.60,-0.87,9.96,-0.03,-0.01,-0.01,31.95
61648190,1906,1,197829,238631,0.59,-0.89,9.98,-0.03,-0.01,-0.00,31.95
61688191,1914,1,197839,238705,0.61,-0.90,9.97,-0.03,-0.01,-0.00,31.95
