timestamp_us,ecg,leads,ir,red,accX,accY,accZ,gyroX,gyroY,gyroZ,temp
1919490,1485,1,207463,232008,0.00,0.00,0.00,0.00,0.00,0.00,0.00
1949961,1261,1,207153,231651,0.51,-0.78,9.71,-0.03,-0.01,-0.00,31.61
1990201,1166,1,207096,231679,0.55,-0.82,9.97,-0.03,-0.01,-0.00,31.61
2030192,1111,1,207157,231959,0.56,-0.80,9.95,-0.03,-0.01,-0.00,31.61
2070195,1237,1,207358,232481,0.55,-0.80,9.95,-0.03,-0.01,-0.00,31.61
2110192,1281,1,207433,232629,0.53,-0.81,9.99,-0.03,-0.01,-0.00,31.61
2150195,1338,1,207491,232630,0.55,-0.81,9.95,-0.03,-0.01,-0.01,31.61
2190192,1429,1,207559,232887,0.52,-0.82,9.97,-0.03,-0.01,-0.00,31.61
2229195,1527,1,207627,233219,0.53,-0.81,9.97,-0.03,-0.01,-0.00,31.61
2269191,1665,1,207676,233291,0.54,-0.80,9.95,-0.03,-0.01,-0.00,31.61
2309195,1725,1,207754,233902,0.53,-0.80,9.97,-0.03,-0.01,-0.00,31.61
2349206,1294,1,208021,234812,0.55,-0.82,10.00,-0.03,-0.00,-0.01,31.61
2389195,1978,1,208338,235585,0.50,-0.81,9.96,-0.03,-0.01,-0.01,31.61
2429191,2153,1,208600,236423,0.52,-0.80,9.96,-0.03,-0.01,-0.01,31.61
2469195,2184,1,208928,237513,0.56,-0.79,9.95,-0.04,-0.01,-0.01,31.61
2509192,2230,1,208979,237160,0.54,-0.81,9.96,-0.04,-0.00,-0.01,31.61
2549195,2205,1,208345,236003,0.53,-0.81,9.95,-0.04,-0.00,-0.01,31.61
2589192,2203,1,207662,235191,0.53,-0.80,9.98,-0.04,-0.01,-0.01,31.61
2629195,2186,1,207353,234822,0.49,-0.81,9.98,-0.03,-0.03,0.00,31.61
2669172,2170,1,207465,234793,0.56,-0.78,9.94,-0.03,-0.01,-0.00,31.61
2709195,2150,1,207307,234256,0.53,-0.79,9.98,-0.03,-0.01,-0.00,31.61
2749191,2115,1,207193,233823,0.54,-0.81,9.96,-0.03,-0.02,0.00,31.61
2789175,2096,1,207314,234497,0.58,-0.82,9.94,-0.03,-0.01,-0.00,31.61
2829191,2067,1,207664,235682,0.55,-0.82,9.94,-0.04,-0.00,-0.01,31.61
2869195,2015,1,207883,236455,0.51,-0.81,9.97,-0.04,-0.00,-0.01,31.61
2909191,1990,1,207982,237105,0.51,-0.82,9.95,-0.03,-0.01,-0.00,31.61
2949195,1973,1,208224,237539,0.55,-0.79,9.95,-0.03,-0.02,-0.00,31.61
2989878,1935,1,208235,237960,0.53,-0.82,9.96,-0.03,-0.01,-0.00,31.41
3030196,1919,1,208417,238462,0.53,-0.81,9.95,-0.03,-0.01,-0.00,31.41
3070192,1919,1,208504,238984,0.53,-0.79,9.94,-0.03,-0.01,-0.01,31.41
3110195,1922,1,208598,239268,0.55,-0.80,9.97,-0.03,-0.01,-0.00,31.41
3150191,1919,1,208635,239272,0.50,-0.81,9.98,-0.03,-0.01,-0.00,31.41
3190195,1923,1,208597,238761,0.53,-0.79,9.98,-0.03,-0.01,-0.00,31.41
3229206,1934,1,208313,237316,0.55,-0.80,9.96,-0.03,-0.02,-0.00,31.41
3269196,1923,1,208001,236406,0.53,-0.80,9.98,-0.03,-0.01,-0.00,31.41
3309191,1920,1,207805,235918,0.54,-0.83,9.95,-0.03,-0.01,-0.00,31.41
3349195,1924,1,207755,235741,0.57,-0.82,9.95,-0.03,-0.01,-0.00,31.41
3389192,1913,1,207764,235879,0.53,-0.80,9.95,-0.03,-0.01,-0.00,31.41
3429195,1899,1,207907,236227,0.53,-0.82,9.96,-0.03,-0.01,-0.00,31.41
3469192,1909,1,208013,236427,0.55,-0.81,9.96,-0.03,-0.01,-0.00,31.41
3509195,1916,1,208109,236587,0.54,-0.82,9.98,-0.03,-0.01,-0.00,31.41
3549192,1909,1,208153,236682,0.53,-0.80,9.97,-0.03,-0.01,-0.00,31.41
3589195,1903,1,208255,236977,0.56,-0.80,9.97,-0.03,-0.01,-0.00,31.41
3629192,1905,1,208345,237384,0.54,-0.82,9.97,-0.03,-0.01,-0.00,31.41
3669195,1917,1,208549,237991,0.56,-0.83,9.96,-0.04,-0.01,-0.00,31.41
3709192,1920,1,208738,238604,0.52,-0.79,9.96,-0.04,-0.01,-0.01,31.41
3749195,1927,1,208860,239022,0.53,-0.80,9.96,-0.03,-0.01,-0.00,31.41
3789191,1927,1,208905,239215,0.51,-0.82,9.94,-0.03,-0.01,-0.00,31.41
3829195,1926,1,208931,239137,0.55,-0.81,9.96,-0.03,-0.01,-0.00,31.41
3869192,1927,1,208943,238657,0.55,-0.80,9.95,-0.03,-0.01,-0.00,31.41
3909195,1935,1,208626,237948,0.53,-0.80,9.97,-0.03,-0.01,-0.00,31.41
3949191,1936,1,208470,237520,0.54,-0.79,9.94,-0.03,-0.01,-0.00,31.41
3989195,1916,1,208372,237451,0.54,-0.84,9.96,-0.03,-0.01,-0.00,31.41
4029878,1706,1,208314,237841,0.54,-0.81,9.96,-0.03,-0.01,-0.00,31.49
4068195,2010,1,208365,238528,0.55,-0.80,9.94,-0.04,0.00,-0.01,31.49
4108172,1978,1,208300,238256,0.49,-0.80,10.01,-0.04,-0.01,-0.01,31.49
4148195,1983,1,208039,237443,0.51,-0.81,9.95,-0.04,-0.02,-0.01,31.49
4188192,2036,1,208219,237675,0.56,-0.83,9.96,-0.03,-0.02,-0.00,31.49
4228195,2014,1,208483,238267,0.57,-0.85,9.97,-0.03,-0.01,-0.00,31.49
4269192,1936,1,208546,238601,0.55,-0.79,10.00,-0.03,-0.00,-0.01,31.49
4309195,1950,1,208509,238657,0.51,-0.80,9.97,-0.03,-0.01,-0.01,31.49
4349192,1969,1,208545,238825,0.54,-0.81,9.96,-0.03,-0.01,-0.00,31.49
4389196,1883,1,208572,239071,0.52,-0.82,9.98,-0.03,-0.01,-0.00,31.49
4429192,1982,1,208532,239326,0.54,-0.85,9.95,-0.03,-0.01,-0.01,31.49
4469195,2064,1,208530,239486,0.52,-0.77,9.96,-0.03,-0.01,-0.01,31.49
4509192,2069,1,208445,239426,0.55,-0.81,9.96,-0.03,-0.01,-0.00,31.49
4549195,2079,1,208325,238918,0.52,-0.83,9.95,-0.03,-0.01,-0.00,31.49
4589192,2084,1,208123,238507,0.52,-0.82,9.96,-0.03,-0.01,-0.00,31.49
4629195,2125,1,208005,238376,0.54,-0.79,9.96,-0.03,-0.01,-0.00,31.49
4669192,2154,1,207952,238425,0.55,-0.81,9.96,-0.03,-0.01,-0.00,31.49
4709195,2137,1,207936,238412,0.53,-0.83,9.98,-0.03,-0.01,-0.00,31.49
4749192,2208,1,208040,238729,0.54,-0.81,9.96,-0.03,-0.01,-0.00,31.49
4789195,2208,1,208221,239013,0.40,-0.81,9.99,-0.03,-0.02,0.01,31.49
4829172,2365,1,208484,239096,0.54,-0.80,9.97,-0.04,-0.01,-0.01,31.49
4869235,2557,1,208439,239182,0.54,-0.83,9.98,-0.03,-0.01,-0.00,31.49
4909192,2608,1,208410,239141,0.55,-0.80,9.96,-0.03,-0.01,-0.00,31.49
4949195,2559,1,208435,239145,0.53,-0.81,9.97,-0.03,-0.01,-0.00,31.49
4989192,2459,1,208460,239232,0.53,-0.79,9.97,-0.03,-0.01,-0.01,31.49
5029196,2398,1,208508,239430,0.55,-0.80,9.96,-0.03,-0.01,-0.01,31.49
5069930,2315,1,208573,239511,0.53,-0.81,9.96,-0.03,-0.01,-0.00,31.53
5108195,2240,1,208494,239610,0.51,-0.82,9.96,-0.03,-0.01,-0.00,31.53
5148191,2002,1,208450,239531,0.55,-0.80,9.94,-0.03,-0.01,-0.01,31.53
5188195,1856,1,208369,238888,0.55,-0.82,9.98,-0.03,-0.01,-0.00,31.53
5228191,1738,1,208132,238223,0.53,-0.83,9.96,-0.03,-0.01,-0.00,31.53
5268196,1659,1,207922,237683,0.54,-0.81,9.96,-0.03,-0.01,-0.00,31.53
5309192,1589,1,207833,237433,0.55,-0.80,9.94,-0.03,-0.02,-0.00,31.53
5349195,1589,1,207783,237319,0.55,-0.81,9.93,-0.03,-0.01,-0.00,31.53
5389192,1600,1,207755,237436,0.53,-0.81,9.97,-0.03,-0.01,-0.00,31.53
5429195,1641,1,207820,237491,0.57,-0.80,9.96,-0.03,-0.01,-0.00,31.53
5469191,1647,1,207831,237584,0.53,-0.81,9.96,-0.03,-0.01,-0.01,31.53
5509195,1663,1,207799,237517,0.54,-0.81,9.96,-0.03,-0.01,-0.00,31.53
5549192,1686,1,207779,237478,0.56,-0.81,9.98,-0.03,-0.01,-0.00,31.53
5589195,1716,1,207757,237470,0.55,-0.82,9.97,-0.03,-0.01,-0.01,31.53
5629192,1748,1,207794,237506,0.55,-0.79,9.96,-0.03,-0.01,-0.00,31.53
5669195,1786,1,207842,237560,0.56,-0.81,9.99,-0.03,-0.01,-0.00,31.53
5709192,1822,1,207837,237645,0.56,-0.80,9.97,-0.03,-0.01,-0.00,31.53
5749195,1858,1,207895,237852,0.52,-0.83,9.95,-0.03,-0.01,-0.00,31.53
5789192,1873,1,207879,238009,0.54,-0.81,9.96,-0.03,-0.01,-0.00,31.53
5829195,1903,1,207850,237562,0.56,-0.80,9.97,-0.03,-0.01,-0.00,31.53
5869191,1913,1,207568,236933,0.55,-0.82,9.96,-0.03,-0.01,-0.00,31.53
5909195,1939,1,207472,236719,0.53,-0.80,9.97,-0.03,-0.01,-0.00,31.53
5949191,1967,1,207408,236620,0.56,-0.80,9.95,-0.03,-0.01,-0.00,31.53
5989195,1984,1,207415,236668,0.54,-0.80,9.97,-0.03,-0.01,-0.00,31.53
6029191,2002,1,207438,236732,0.55,-0.80,9.96,-0.03,-0.01,-0.00,31.53
6069195,2015,1,207470,236822,0.53,-0.80,9.95,-0.03,-0.01,-0.00,31.53
6109878,1995,1,207576,236989,0.55,-0.81,9.96,-0.03,-0.01,-0.00,31.49
6148195,2047,1,207613,237115,0.55,-0.79,9.96,-0.03,-0.01,-0.00,31.49
6188191,2043,1,207681,237271,0.56,-0.79,9.94,-0.03,-0.01,-0.00,31.49
6228195,2047,1,207745,237440,0.53,-0.80,9.95,-0.03,-0.01,-0.01,31.49
6268192,2059,1,207763,237644,0.54,-0.81,9.96,-0.03,-0.01,-0.00,31.49
6309195,2032,1,207806,237788,0.55,-0.79,9.96,-0.03,-0.01,-0.00,31.49
6347192,2174,1,207835,238114,0.55,-0.82,9.96,-0.03,-0.01,-0.00,31.49
6387195,2166,1,207906,238428,0.55,-0.82,9.96,-0.03,-0.00,-0.01,31.49
6427192,2170,1,207924,238539,0.53,-0.81,9.96,-0.03,-0.01,-0.00,31.49
6467195,2074,1,207862,238077,0.53,-0.81,9.96,-0.03,-0.01,-0.00,31.49
6507225,2061,1,207624,237411,0.55,-0.81,9.97,-0.03,-0.01,-0.00,31.49
6547195,1957,1,207500,237198,0.54,-0.80,9.99,-0.03,-0.01,-0.00,31.49
6587191,2259,1,207483,237191,0.51,-0.80,9.96,-0.03,-0.01,-0.00,31.49
6627195,2176,1,207585,237232,0.55,-0.81,9.96,-0.03,-0.01,-0.00,31.49
6667192,2141,1,207646,237424,0.55,-0.81,9.97,-0.03,-0.01,-0.00,31.49
6707233,2099,1,207726,237491,0.55,-0.82,9.96,-0.03,-0.01,-0.00,31.49
6747192,2059,1,207751,237591,0.53,-0.79,9.99,-0.03,-0.01,-0.00,31.49
6787195,1950,1,207738,237690,0.55,-0.80,9.94,-0.03,-0.01,-0.00,31.49
6827191,1966,1,207766,237706,0.55,-0.81,9.96,-0.03,-0.01,-0.00,31.49
6867195,1988,1,207778,237783,0.54,-0.82,9.95,-0.03,-0.01,-0.00,31.49
6907192,2075,1,207808,237901,0.53,-0.82,9.96,-0.03,-0.01,-0.00,31.49
6947195,2128,1,207963,238180,0.52,-0.80,9.92,-0.03,-0.01,-0.00,31.49
6987192,2083,1,208060,238453,0.56,-0.83,9.96,-0.03,-0.01,-0.01,31.49
7027195,2098,1,208133,238652,0.55,-0.81,10.01,-0.03,-0.01,-0.01,31.49
7067192,2089,1,208112,238647,0.52,-0.81,9.97,-0.03,-0.01,-0.00,31.49
7107195,2055,1,208079,238297,0.52,-0.80,9.97,-0.03,-0.01,-0.00,31.49
7147878,1985,1,207951,237814,0.53,-0.81,9.96,-0.03,-0.01,-0.01,31.55
7188195,2005,1,207846,237590,0.53,-0.82,9.96,-0.03,-0.01,-0.00,31.55
7228192,1989,1,207820,237606,0.53,-0.82,9.96,-0.03,-0.01,-0.00,31.55
7268195,1984,1,207915,237630,0.55,-0.80,9.95,-0.03,-0.01,-0.00,31.55
7308192,1986,1,207930,237848,0.55,-0.82,9.95,-0.03,-0.01,-0.00,31.55
7347195,2028,1,208009,238128,0.55,-0.81,9.97,-0.03,-0.01,-0.00,31.55
7387192,2032,1,207985,238165,0.56,-0.81,9.97,-0.03,-0.01,-0.00,31.55
7427195,1995,1,208059,238280,0.55,-0.80,9.94,-0.03,-0.01,-0.00,31.55
7467191,1999,1,208199,238384,0.53,-0.81,9.99,-0.03,-0.01,-0.00,31.55
7507195,1968,1,208245,238566,0.53,-0.80,9.95,-0.03,-0.02,-0.00,31.55
7547191,1984,1,208443,238803,0.53,-0.83,9.94,-0.03,-0.01,-0.00,31.55
7587195,1993,1,208618,239241,0.55,-0.80,9.97,-0.03,-0.01,-0.00,31.55
7627192,1978,1,208465,239448,0.51,-0.86,10.10,-0.06,-0.01,-0.01,31.55
7667195,1987,1,208968,239966,0.54,-0.80,9.91,-0.03,-0.02,-0.00,31.55
7707191,1989,1,209183,240977,0.59,-0.78,9.90,-0.04,-0.01,-0.01,31.55
7747195,1977,1,209180,240912,0.52,-0.84,9.97,-0.05,0.01,-0.01,31.55
7787172,1974,1,208675,240032,0.49,-0.79,9.98,-0.04,-0.00,-0.02,31.55
7827195,1955,1,208370,238817,0.53,-0.80,10.02,-0.02,-0.04,-0.00,31.55
7867192,1964,1,208539,238756,0.58,-0.80,9.93,-0.03,-0.05,0.00,31.55
7907175,1964,1,209203,239214,0.57,-0.83,9.94,-0.03,-0.01,-0.00,31.55
7947191,1934,1,209526,239580,0.55,-0.80,9.95,-0.03,-0.00,-0.00,31.55
7987195,1939,1,209648,239406,0.56,-0.83,9.96,-0.03,-0.01,-0.00,31.55
8027192,1947,1,209535,239072,0.57,-0.81,9.96,-0.03,-0.01,-0.00,31.55
8067195,1959,1,209484,238949,0.55,-0.81,9.98,-0.03,-0.01,-0.00,31.55
8107191,1968,1,209437,238780,0.57,-0.82,9.96,-0.03,-0.01,-0.00,31.55
8147208,1979,1,209253,237983,0.56,-0.81,9.97,-0.03,-0.01,-0.00,31.55
8187879,1971,1,208479,236914,0.54,-0.80,9.99,-0.03,-0.01,-0.00,31.57
8228195,2014,1,208588,237771,0.56,-0.80,9.95,-0.03,-0.01,-0.00,31.57
8268192,2023,1,209390,239042,0.57,-0.81,9.97,-0.03,-0.00,-0.00,31.57
8308195,2039,1,209893,239669,0.54,-0.80,9.95,-0.04,-0.01,-0.00,31.57
8348223,2032,1,209953,239176,0.56,-0.78,9.97,-0.04,-0.01,-0.00,31.57
8388195,2027,1,209694,238534,0.57,-0.79,9.95,-0.04,-0.01,-0.01,31.57
8428195,2025,1,209761,238817,0.55,-0.83,9.96,-0.04,-0.01,-0.00,31.57
8468195,2046,1,210090,239518,0.55,-0.80,9.97,-0.04,-0.01,-0.00,31.57
8508192,2047,1,210247,239975,0.54,-0.80,9.95,-0.03,-0.01,-0.01,31.57
8548219,2067,1,210381,240198,0.53,-0.80,9.98,-0.03,-0.02,-0.00,31.57
8588192,2032,1,210506,240330,0.54,-0.83,9.98,-0.03,-0.02,-0.00,31.57
8628195,2064,1,210660,240683,0.56,-0.80,9.97,-0.03,-0.02,-0.00,31.57
8668192,2025,1,210862,240923,0.58,-0.82,9.93,-0.03,-0.01,0.00,31.57
8708175,2013,1,210848,241195,0.54,-0.82,9.94,-0.04,0.00,-0.01,31.57
8748172,1995,1,210799,241417,0.54,-0.82,9.97,-0.03,-0.01,-0.00,31.57
8788195,2013,1,210833,241333,0.55,-0.81,9.96,-0.03,-0.01,-0.00,31.57
8828192,2001,1,210772,241198,0.54,-0.79,9.97,-0.04,-0.02,-0.00,31.57
8868195,2000,1,210870,241417,0.54,-0.79,9.94,-0.03,-0.02,-0.00,31.57
8908192,1978,1,211109,241998,0.57,-0.81,9.96,-0.04,-0.01,-0.00,31.57
8948195,1977,1,211259,242361,0.53,-0.82,9.96,-0.03,-0.01,-0.01,31.57
8988192,1971,1,211294,241868,0.53,-0.82,9.96,-0.03,-0.01,-0.00,31.57
9026201,2080,1,211103,241357,0.55,-0.80,9.97,-0.03,-0.01,-0.00,31.57
9066191,2073,1,211056,241059,0.55,-0.82,9.95,-0.03,-0.01,-0.00,31.57
9106195,2071,1,211096,241039,0.54,-0.82,9.96,-0.03,-0.01,-0.01,31.57
9146192,2064,1,211278,241173,0.55,-0.78,9.97,-0.04,-0.02,-0.01,31.57
9186195,2069,1,211459,241476,0.56,-0.81,9.96,-0.04,-0.02,-0.00,31.57
9226878,1985,1,211807,241961,0.55,-0.83,9.96,-0.03,-0.01,-0.00,31.47
9267195,2005,1,212099,242202,0.55,-0.80,9.95,-0.03,-0.01,-0.00,31.47
9307191,1998,1,212275,242542,0.55,-0.79,9.97,-0.03,-0.01,-0.00,31.47
9347195,1997,1,212645,243112,0.55,-0.81,9.96,-0.03,-0.01,-0.00,31.47
9387192,1998,1,212877,243478,0.55,-0.83,9.96,-0.03,-0.02,-0.00,31.47
9427195,1983,1,212887,243544,0.58,-0.82,9.96,-0.03,-0.01,-0.01,31.47
9467192,2000,1,212904,243741,0.55,-0.81,9.96,-0.04,-0.01,-0.01,31.47
9507195,1974,1,212927,243893,0.53,-0.81,9.95,-0.04,-0.01,-0.01,31.47
9547195,2000,1,212891,243929,0.55,-0.80,9.94,-0.03,-0.01,-0.01,31.47
9587195,1984,1,212810,243303,0.54,-0.82,9.96,-0.03,-0.01,-0.00,31.47
9627192,1985,1,212472,242295,0.56,-0.83,9.97,-0.03,-0.01,-0.00,31.47
9667195,1984,1,212181,241580,0.54,-0.81,9.98,-0.03,-0.01,-0.00,31.47
9707192,1989,1,212085,241221,0.53,-0.81,9.95,-0.03,-0.01,-0.00,31.47
9747195,1991,1,212139,241213,0.56,-0.81,9.94,-0.03,-0.01,-0.00,31.47
9787192,1987,1,212199,241627,0.55,-0.81,9.95,-0.03,-0.01,-0.00,31.47
9827195,2006,1,212422,242142,0.55,-0.79,9.97,-0.04,-0.01,-0.00,31.47
9867192,2015,1,212528,242387,0.54,-0.80,9.96,-0.04,-0.01,-0.00,31.47
9907195,2005,1,212677,242757,0.54,-0.81,9.96,-0.03,-0.01,-0.00,31.47
9947192,2012,1,212802,243136,0.56,-0.81,9.95,-0.03,-0.01,-0.00,31.47
9987198,1999,1,212992,243630,0.57,-0.81,9.97,-0.03,-0.01,-0.00,31.47
10027192,1997,1,213167,244115,0.55,-0.79,9.96,-0.03,-0.01,-0.00,31.47
10067195,2001,1,213364,244420,0.55,-0.81,9.96,-0.03,-0.01,-0.00,31.47
10107195,1963,1,213426,244574,0.54,-0.82,9.95,-0.03,-0.01,-0.00,31.47
10147195,1979,1,213330,244549,0.55,-0.82,9.96,-0.03,-0.01,-0.00,31.47
10187195,1978,1,213199,244265,0.54,-0.79,9.95,-0.03,-0.00,-0.01,31.47
10227882,1974,1,212927,243460,0.55,-0.82,9.98,-0.03,-0.01,-0.00,31.67
10266192,2032,1,212573,242653,0.56,-0.81,9.97,-0.03,-0.01,-0.00,31.67
10306195,2038,1,212328,242248,0.53,-0.81,9.94,-0.03,-0.01,-0.01,31.67
10346195,2035,1,212244,242180,0.56,-0.82,9.96,-0.03,-0.01,-0.00,31.67
10386195,2058,1,212313,242300,0.56,-0.80,9.95,-0.03,-0.01,-0.00,31.67
10426192,2057,1,212384,242600,0.55,-0.83,9.96,-0.03,-0.01,-0.00,31.67
10466195,2043,1,212394,242888,0.55,-0.81,9.95,-0.03,-0.00,-0.01,31.67
10506192,2068,1,212311,243120,0.54,-0.82,9.96,-0.03,-0.00,-0.01,31.67
10546195,2054,1,212240,243118,0.54,-0.81,9.95,-0.03,-0.01,-0.00,31.67
10586192,2060,1,212331,243257,0.55,-0.80,9.94,-0.03,-0.01,-0.00,31.67
10626195,2046,1,212410,243314,0.56,-0.80,9.98,-0.03,-0.01,-0.00,31.67
10666191,2047,1,212434,243435,0.55,-0.80,9.95,-0.03,-0.01,-0.00,31.67
10706195,2047,1,212511,243464,0.54,-0.81,9.95,-0.03,-0.01,-0.00,31.67
10746192,2039,1,212479,243537,0.56,-0.82,9.97,-0.03,-0.01,-0.00,31.67
10786195,2014,1,212495,243479,0.54,-0.80,9.96,-0.03,-0.01,-0.00,31.67
10826192,2034,1,212444,243035,0.53,-0.80,9.96,-0.03,-0.01,-0.00,31.67
10866196,2017,1,212245,242527,0.54,-0.82,9.97,-0.03,-0.01,-0.00,31.67
10906192,2013,1,212151,242387,0.52,-0.82,9.96,-0.03,-0.01,-0.00,31.67
10946195,2000,1,212184,242413,0.54,-0.81,9.96,-0.03,-0.01,-0.00,31.67
10986192,2000,1,212268,242588,0.54,-0.82,9.95,-0.03,-0.01,-0.00,31.67
11026198,2017,1,212401,242872,0.55,-0.81,9.97,-0.03,-0.01,-0.00,31.67
11066192,2023,1,212464,243102,0.54,-0.81,9.96,-0.03,-0.01,-0.00,31.67
11106195,2032,1,212550,243443,0.55,-0.81,9.97,-0.03,-0.01,-0.00,31.67
11146192,2018,1,212687,243738,0.57,-0.81,9.94,-0.03,-0.01,-0.00,31.67
11186195,2032,1,212660,244152,0.55,-0.81,9.97,-0.03,-0.01,-0.01,31.67
11226195,2019,1,212676,244525,0.53,-0.80,9.96,-0.04,-0.01,-0.00,31.67
11266882,1971,1,212689,244885,0.55,-0.81,9.96,-0.03,-0.01,-0.00,31.77
11307195,1969,1,212821,245193,0.55,-0.82,9.98,-0.03,-0.01,-0.00,31.77
11347195,1973,1,212984,245524,0.57,-0.82,9.96,-0.03,-0.01,-0.00,31.77
11387195,1984,1,213093,245513,0.55,-0.81,9.97,-0.03,-0.01,-0.00,31.77
11427195,1998,1,213099,245124,0.55,-0.81,9.98,-0.03,-0.01,-0.00,31.77
11467195,1991,1,212960,244689,0.53,-0.81,9.97,-0.03,-0.01,-0.01,31.77
11507195,1993,1,212838,244501,0.54,-0.80,9.96,-0.03,-0.01,-0.00,31.77
11547192,1998,1,212765,244418,0.54,-0.82,9.96,-0.03,-0.01,-0.00,31.77
11587195,1999,1,212768,244331,0.54,-0.81,9.98,-0.03,-0.01,-0.00,31.77
11627220,1993,1,212838,244370,0.53,-0.82,9.95,-0.03,-0.01,-0.00,31.77
11667195,1991,1,212897,244420,0.57,-0.83,9.94,-0.04,-0.01,-0.00,31.77
11705192,2100,1,212941,244478,0.53,-0.82,9.98,-0.03,-0.01,-0.00,31.77
11745195,2103,1,212939,244532,0.55,-0.80,9.96,-0.03,-0.01,-0.00,31.77
11785192,2090,1,212932,244655,0.56,-0.81,9.96,-0.04,-0.02,-0.00,31.77
11825212,2106,1,212904,244626,0.55,-0.81,9.99,-0.04,-0.02,-0.00,31.77
11865192,2082,1,212958,244732,0.54,-0.81,9.96,-0.04,-0.02,-0.00,31.77
11905195,2080,1,212923,244769,0.56,-0.81,9.98,-0.04,-0.02,-0.00,31.77
11945192,2025,1,213014,244871,0.55,-0.81,9.96,-0.03,-0.01,-0.00,31.77
11985195,2037,1,213088,244941,0.56,-0.81,9.96,-0.03,-0.01,-0.00,31.77
12025201,2032,1,213064,245060,0.57,-0.82,9.98,-0.04,-0.02,-0.00,31.77
12065195,1995,1,212967,244949,0.58,-0.83,9.96,-0.03,-0.01,-0.00,31.77
12105192,1970,1,212967,244462,0.57,-0.81,9.95,-0.03,-0.01,-0.00,31.77
12145195,2003,1,212845,244089,0.55,-0.81,9.94,-0.03,-0.01,-0.00,31.77
12185195,2064,1,212729,243846,0.55,-0.81,9.96,-0.03,-0.01,-0.00,31.77
12225195,2110,1,212723,243731,0.57,-0.82,9.96,-0.03,-0.01,-0.00,31.77
12265195,2139,1,212676,243717,0.56,-0.84,9.97,-0.03,-0.01,-0.00,31.77
12305882,2093,1,212773,243958,0.57,-0.83,9.95,-0.03,-0.01,-0.00,31.63
12346195,2089,1,212810,244152,0.56,-0.83,9.97,-0.03,-0.01,-0.00,31.63
12386195,2107,1,212830,244362,0.56,-0.83,9.96,-0.03,-0.01,-0.00,31.63
12426195,2082,1,212814,244491,0.57,-0.83,9.95,-0.03,-0.01,-0.00,31.63
12466195,2089,1,212869,244572,0.58,-0.83,9.97,-0.03,-0.01,-0.00,31.63
12506192,2065,1,212843,244674,0.57,-0.81,9.95,-0.03,-0.01,-0.00,31.63
12546195,2047,1,212821,244738,0.54,-0.80,9.97,-0.03,-0.01,-0.00,31.63
12586192,2032,1,212898,244805,0.57,-0.83,9.98,-0.03,-0.01,-0.00,31.63
12626195,2014,1,212924,244814,0.56,-0.80,9.95,-0.03,-0.01,-0.00,31.63
12666192,2029,1,212921,244905,0.55,-0.82,9.96,-0.03,-0.01,-0.01,31.63
12706195,2027,1,212973,245013,0.56,-0.81,9.96,-0.03,-0.01,-0.00,31.63
12746195,2022,1,212960,245045,0.57,-0.83,9.96,-0.03,-0.01,-0.00,31.63
12786195,2027,1,212986,244966,0.56,-0.81,9.98,-0.03,-0.01,-0.00,31.63
12826195,2001,1,212874,244381,0.56,-0.80,9.95,-0.03,-0.01,-0.00,31.63
12866195,1975,1,212638,243768,0.56,-0.81,9.96,-0.03,-0.01,-0.00,31.63
12906195,1974,1,212507,243352,0.56,-0.81,9.96,-0.03,-0.01,-0.00,31.63
12946195,1956,1,212430,243132,0.57,-0.83,9.98,-0.03,-0.01,-0.00,31.63
12986192,1975,1,212355,243155,0.56,-0.83,9.95,-0.03,-0.01,-0.01,31.63
13026198,1975,1,212337,243203,0.57,-0.80,9.97,-0.03,-0.01,-0.01,31.63
13066192,1975,1,212394,243287,0.55,-0.82,9.94,-0.03,-0.01,-0.00,31.63
13106195,1968,1,212436,243167,0.56,-0.84,9.96,-0.03,-0.01,-0.01,31.63
13146195,1971,1,212463,243156,0.57,-0.83,9.98,-0.03,-0.01,-0.00,31.63
13186195,1943,1,212530,243247,0.57,-0.80,9.95,-0.03,-0.01,-0.00,31.63
13226192,1951,1,212592,243467,0.56,-0.81,9.96,-0.03,-0.01,-0.00,31.63
13266247,1943,1,212641,243598,0.56,-0.81,9.97,-0.03,-0.01,-0.01,31.63
13306882,1914,1,212627,243792,0.56,-0.83,9.98,-0.03,-0.01,-0.00,31.49
13345195,1958,1,212642,243958,0.57,-0.82,9.95,-0.03,-0.01,-0.00,31.49
13385192,1959,1,212662,244059,0.54,-0.80,9.96,-0.03,-0.01,-0.00,31.49
13425195,1950,1,212699,244097,0.55,-0.82,9.94,-0.03,-0.01,-0.00,31.49
13465217,1947,1,212713,244153,0.57,-0.83,9.96,-0.03,-0.01,-0.00,31.49
13505195,1959,1,212673,243754,0.56,-0.83,9.94,-0.03,-0.01,-0.00,31.49
13545192,1963,1,212428,243236,0.57,-0.84,9.97,-0.03,-0.01,-0.01,31.49
13585195,1998,1,212237,242879,0.55,-0.82,9.95,-0.03,-0.01,-0.00,31.49
13625192,2003,1,212171,242726,0.56,-0.82,9.97,-0.03,-0.01,-0.00,31.49
13665195,2007,1,212172,242683,0.56,-0.80,9.96,-0.03,-0.01,-0.00,31.49
13705192,2007,1,212113,242722,0.57,-0.82,9.97,-0.03,-0.01,-0.00,31.49
13745195,2036,1,212149,242695,0.57,-0.82,9.96,-0.03,-0.01,-0.00,31.49
13785192,2026,1,212123,242659,0.58,-0.81,9.94,-0.03,-0.01,-0.00,31.49
13825195,2032,1,212138,242687,0.57,-0.81,9.95,-0.03,-0.01,-0.01,31.49
13865195,2026,1,212182,242832,0.57,-0.81,9.94,-0.03,-0.01,-0.00,31.49
13905195,2017,1,212234,243060,0.59,-0.80,9.94,-0.03,-0.01,-0.01,31.49
13945192,2031,1,212296,243117,0.58,-0.82,9.94,-0.03,-0.01,-0.01,31.49
13985195,2032,1,212270,243125,0.56,-0.81,9.95,-0.03,-0.01,-0.00,31.49
14025201,2042,1,212273,243090,0.56,-0.81,9.93,-0.03,-0.01,-0.00,31.49
14065195,2055,1,212330,243256,0.58,-0.81,9.97,-0.03,-0.01,-0.00,31.49
14105193,2038,1,212419,243354,0.55,-0.81,9.94,-0.03,-0.01,-0.01,31.49
14145195,2057,1,212428,243523,0.55,-0.80,9.96,-0.03,-0.01,-0.00,31.49
14185191,2033,1,212391,243100,0.56,-0.82,9.97,-0.03,-0.01,-0.00,31.49
14225195,2060,1,212133,242170,0.55,-0.82,9.97,-0.03,-0.01,-0.00,31.49
14265192,2053,1,211802,241436,0.57,-0.82,9.96,-0.03,-0.01,-0.00,31.49
14305195,2046,1,211537,240913,0.52,-0.82,9.98,-0.03,-0.01,-0.00,31.49
14345882,2015,1,211426,240618,0.58,-0.81,9.97,-0.03,-0.01,-0.00,31.39
14384195,2114,1,211498,240559,0.57,-0.81,9.98,-0.03,-0.01,-0.00,31.39
14424192,2109,1,211619,240790,0.56,-0.81,9.93,-0.03,-0.01,-0.00,31.39
14464195,2112,1,211691,241016,0.58,-0.81,9.96,-0.03,-0.01,-0.00,31.39
14504192,2081,1,211770,241194,0.56,-0.80,9.94,-0.03,-0.01,-0.00,31.39
14544195,2073,1,211855,241330,0.60,-0.80,9.93,-0.03,-0.01,-0.00,31.39
14584191,2074,1,211952,241565,0.58,-0.82,9.96,-0.03,-0.01,-0.01,31.39
14624195,2077,1,212304,242157,0.57,-0.80,9.94,-0.03,-0.02,-0.00,31.39
14664192,2068,1,212497,242556,0.59,-0.80,9.95,-0.04,-0.01,-0.00,31.39
14704195,2045,1,212660,242862,0.58,-0.81,9.98,-0.04,-0.01,-0.01,31.39
14744195,2019,1,212614,243042,0.55,-0.83,9.98,-0.04,-0.01,-0.00,31.39
14784195,2054,1,212672,243223,0.57,-0.81,9.97,-0.03,-0.01,-0.01,31.39
14824195,2035,1,212682,243359,0.57,-0.80,9.96,-0.03,-0.01,-0.00,31.39
14864195,2037,1,212763,243440,0.55,-0.81,9.97,-0.03,-0.01,-0.00,31.39
14904233,2055,1,212748,243519,0.58,-0.79,9.96,-0.03,-0.01,-0.00,31.39
14944195,2059,1,212608,243050,0.55,-0.81,9.97,-0.03,-0.01,-0.00,31.39
14984195,2055,1,212321,242201,0.57,-0.83,9.98,-0.03,-0.01,-0.00,31.39
15024218,2069,1,212024,241633,0.56,-0.80,9.96,-0.03,-0.01,-0.00,31.39
15064192,2080,1,211814,241225,0.54,-0.82,9.98,-0.03,-0.01,-0.00,31.39
15104243,2062,1,211752,241081,0.58,-0.80,9.96,-0.03,-0.01,-0.00,31.39
15144192,2064,1,211740,241236,0.56,-0.79,9.97,-0.03,-0.01,-0.00,31.39
15184195,2057,1,211819,241431,0.56,-0.83,9.97,-0.03,-0.01,-0.01,31.39
15224195,2064,1,211839,241505,0.55,-0.82,9.96,-0.03,-0.01,-0.00,31.39
15264195,2065,1,211941,241588,0.57,-0.82,9.98,-0.03,-0.01,-0.00,31.39
15304192,2064,1,211952,241704,0.55,-0.81,9.97,-0.03,-0.01,-0.00,31.39
15344195,2060,1,212022,241766,0.55,-0.83,9.96,-0.03,-0.01,-0.00,31.39
15384879,2001,1,212100,241969,0.56,-0.81,9.96,-0.03,-0.01,-0.00,31.27
15425195,1988,1,212240,242169,0.56,-0.82,9.97,-0.04,-0.01,-0.00,31.27
15465195,1996,1,212263,242374,0.57,-0.82,9.98,-0.04,-0.01,-0.00,31.27
15505195,2001,1,212300,242596,0.57,-0.83,9.96,-0.03,-0.01,-0.00,31.27
15545195,2006,1,212318,242718,0.57,-0.83,9.93,-0.04,-0.01,-0.01,31.27
15585195,1957,1,212414,242836,0.56,-0.82,9.96,-0.03,-0.01,-0.00,31.27
15625195,1968,1,212483,242959,0.57,-0.83,9.96,-0.03,-0.01,-0.00,31.27
15665195,1879,1,212857,243126,0.57,-0.84,9.95,-0.03,-0.01,-0.00,31.27
15705195,2239,1,213041,243313,0.56,-0.81,9.94,-0.03,-0.01,-0.00,31.27
15745195,2348,1,213048,243194,0.57,-0.82,9.95,-0.03,-0.01,-0.00,31.27
15785195,2407,1,212949,242445,0.57,-0.82,9.93,-0.03,-0.01,-0.00,31.27
15825195,2407,1,212573,241835,0.57,-0.83,9.96,-0.03,-0.01,-0.00,31.27
15865195,2363,1,212449,241577,0.56,-0.82,9.98,-0.03,-0.01,-0.00,31.27
15905195,2320,1,212430,241422,0.59,-0.83,9.96,-0.03,-0.01,-0.01,31.27
15945195,2279,1,212379,241397,0.58,-0.84,9.94,-0.03,-0.01,-0.00,31.27
15985195,2189,1,212478,241627,0.58,-0.82,9.94,-0.03,-0.01,-0.00,31.27
16025201,2141,1,212519,241858,0.59,-0.82,9.96,-0.03,-0.01,-0.01,31.27
16065195,2097,1,212582,242043,0.59,-0.82,9.96,-0.03,-0.01,-0.00,31.27
16105195,2064,1,212627,242308,0.58,-0.82,9.95,-0.03,-0.01,-0.00,31.27
16145195,2029,1,212677,242619,0.58,-0.81,9.93,-0.03,-0.01,-0.00,31.27
16185195,1974,1,212721,242883,0.57,-0.83,9.97,-0.03,-0.01,-0.00,31.27
16225195,1936,1,212810,243094,0.59,-0.84,9.97,-0.03,-0.01,-0.01,31.27
16265195,1918,1,212891,243181,0.58,-0.82,9.96,-0.03,-0.01,-0.00,31.27
16305195,1920,1,212959,243414,0.59,-0.84,9.96,-0.03,-0.01,-0.00,31.27
16344192,1914,1,213055,243566,0.58,-0.81,9.95,-0.03,-0.01,-0.00,31.27
16384195,1876,1,213124,243727,0.58,-0.83,9.94,-0.03,-0.01,-0.00,31.27
16424879,1815,1,213106,243908,0.57,-0.83,9.95,-0.03,-0.01,-0.00,31.41
16465195,1812,1,213214,244053,0.58,-0.82,9.98,-0.03,-0.01,-0.00,31.41
16505192,1806,1,213221,243615,0.58,-0.82,9.96,-0.03,-0.01,-0.00,31.41
16545196,1789,1,212987,242789,0.57,-0.81,9.96,-0.03,-0.01,-0.00,31.41
16585195,1789,1,212805,242189,0.58,-0.82,9.96,-0.03,-0.01,-0.00,31.41
16625195,1776,1,212722,241959,0.58,-0.79,9.96,-0.03,-0.01,-0.00,31.41
16665195,1776,1,212660,241907,0.57,-0.80,9.97,-0.03,-0.01,-0.00,31.41
16705195,1770,1,212678,242052,0.57,-0.84,9.96,-0.03,-0.01,-0.01,31.41
16745210,1757,1,212748,242273,0.57,-0.83,9.95,-0.03,-0.01,-0.00,31.41
16783195,1861,1,212785,242349,0.57,-0.82,9.95,-0.03,-0.01,-0.00,31.41
16823195,1860,1,212786,242414,0.58,-0.83,9.95,-0.03,-0.01,-0.00,31.41
16863195,1882,1,212782,242390,0.59,-0.83,9.95,-0.03,-0.01,-0.01,31.41
16903195,1893,1,212795,242495,0.59,-0.81,9.99,-0.03,-0.01,-0.00,31.41
16943195,1919,1,212792,242496,0.57,-0.82,9.94,-0.03,-0.01,-0.00,31.41
16983192,1923,1,212870,242612,0.58,-0.84,9.96,-0.03,-0.01,-0.00,31.41
17023205,1930,1,212918,242719,0.57,-0.83,9.98,-0.03,-0.01,-0.00,31.41
17063195,1942,1,212964,242796,0.59,-0.83,9.95,-0.03,-0.01,-0.00,31.41
17103195,1937,1,212986,242877,0.57,-0.81,9.94,-0.03,-0.01,-0.00,31.41
17143192,1947,1,213110,243079,0.59,-0.80,9.96,-0.03,-0.01,-0.00,31.41
17183195,1945,1,213135,243098,0.58,-0.83,9.96,-0.03,-0.01,-0.00,31.41
17223192,1937,1,213134,242562,0.57,-0.81,9.96,-0.03,-0.01,-0.01,31.41
17263195,1962,1,212764,241553,0.58,-0.81,9.94,-0.03,-0.01,-0.01,31.41
17303195,1968,1,212472,240828,0.60,-0.83,9.95,-0.03,-0.01,-0.00,31.41
17343195,1957,1,212279,240510,0.58,-0.82,9.98,-0.03,-0.01,-0.00,31.41
17384195,1921,1,212205,240313,0.59,-0.82,9.95,-0.03,-0.01,-0.01,31.41
17424881,1898,1,212133,240396,0.58,-0.82,9.97,-0.03,-0.01,-0.00,31.39
17463195,1968,1,212204,240676,0.59,-0.81,9.97,-0.03,-0.01,-0.00,31.39
17503195,1967,1,212300,240960,0.57,-0.82,9.95,-0.03,-0.01,-0.01,31.39
17543195,1965,1,212307,241133,0.58,-0.81,9.96,-0.03,-0.01,-0.00,31.39
17583195,1978,1,212396,241305,0.57,-0.84,9.96,-0.03,-0.01,-0.00,31.39
17623195,1973,1,212317,241313,0.57,-0.82,9.96,-0.03,-0.01,-0.00,31.39
17663195,1961,1,212273,241200,0.57,-0.83,9.97,-0.03,-0.01,-0.00,31.39
17703195,1967,1,212276,241197,0.58,-0.84,9.95,-0.03,-0.01,-0.00,31.39
17743195,1965,1,212329,241494,0.58,-0.80,9.96,-0.03,-0.01,-0.00,31.39
17783192,1962,1,212332,241793,0.57,-0.81,9.95,-0.03,-0.01,-0.01,31.39
17823195,1963,1,212507,242028,0.58,-0.80,9.98,-0.03,-0.01,-0.00,31.39
17863192,1975,1,212603,242275,0.57,-0.84,9.95,-0.03,-0.01,-0.00,31.39
17903195,1983,1,212694,242464,0.57,-0.81,9.96,-0.03,-0.01,-0.00,31.39
17943195,1978,1,212733,242465,0.60,-0.81,9.95,-0.03,-0.01,-0.00,31.39
17983195,1969,1,212630,241731,0.57,-0.83,9.95,-0.03,-0.01,-0.00,31.39
18023204,1982,1,212331,240593,0.58,-0.83,9.97,-0.03,-0.01,-0.01,31.39
18063195,1984,1,212024,240011,0.57,-0.81,9.96,-0.03,-0.01,-0.00,31.39
18103195,1999,1,211911,239973,0.58,-0.82,9.94,-0.03,-0.01,-0.01,31.39
18143195,1984,1,211962,240244,0.57,-0.83,9.96,-0.04,-0.01,-0.00,31.39
18183201,1994,1,212118,240736,0.59,-0.85,9.95,-0.04,-0.01,-0.01,31.39
18223195,1990,1,212301,241363,0.56,-0.82,9.96,-0.04,-0.01,-0.00,31.39
18263192,1983,1,212459,241919,0.57,-0.82,9.98,-0.03,-0.01,-0.00,31.39
18303195,1969,1,212625,242295,0.59,-0.86,9.96,-0.03,-0.01,-0.01,31.39
18343195,1954,1,212688,242498,0.56,-0.83,9.96,-0.03,-0.01,-0.00,31.39
18384195,1935,1,212814,242648,0.57,-0.83,9.97,-0.03,-0.01,-0.00,31.39
18424882,1915,1,212836,242654,0.58,-0.83,9.97,-0.03,-0.01,-0.00,31.15
18463195,1982,1,212908,242721,0.59,-0.83,9.95,-0.03,-0.01,-0.00,31.15
18503192,1965,1,212947,242737,0.59,-0.82,9.99,-0.03,-0.01,-0.01,31.15
18543195,1968,1,212904,242636,0.56,-0.82,9.97,-0.03,-0.01,-0.00,31.15
18583213,1957,1,212878,242491,0.58,-0.82,9.96,-0.03,-0.01,-0.00,31.15
18623195,1970,1,212890,242491,0.57,-0.80,9.92,-0.03,-0.01,-0.00,31.15
18663192,1966,1,212959,242532,0.57,-0.83,9.95,-0.03,-0.01,-0.00,31.15
18703195,1956,1,212974,242108,0.58,-0.82,9.96,-0.03,-0.01,-0.00,31.15
18743193,1950,1,212692,241162,0.57,-0.83,9.96,-0.03,-0.01,-0.00,31.15
18783195,1955,1,212378,240463,0.57,-0.82,9.99,-0.03,-0.01,-0.00,31.15
18823192,1968,1,212199,240106,0.57,-0.82,9.95,-0.03,-0.01,-0.00,31.15
18863195,1958,1,212164,240053,0.58,-0.83,9.94,-0.03,-0.01,-0.00,31.15
18903192,1943,1,212212,240391,0.58,-0.82,9.98,-0.03,-0.01,-0.00,31.15
18943195,1948,1,212392,240748,0.57,-0.84,9.98,-0.03,-0.01,-0.00,31.15
18983192,1946,1,212510,241073,0.57,-0.83,9.94,-0.04,-0.01,-0.01,31.15
19023205,1943,1,212610,241338,0.58,-0.83,9.96,-0.03,-0.01,-0.00,31.15
19063192,1940,1,212716,241470,0.58,-0.82,9.96,-0.03,-0.01,-0.00,31.15
19103195,1934,1,212719,241670,0.58,-0.82,9.98,-0.03,-0.01,-0.00,31.15
19143192,1945,1,212754,241742,0.56,-0.83,9.96,-0.03,-0.01,-0.00,31.15
19183195,1937,1,212836,241756,0.58,-0.82,9.97,-0.03,-0.01,-0.00,31.15
19223192,1934,1,212844,241994,0.57,-0.83,9.93,-0.03,-0.01,-0.00,31.15
19263195,1947,1,212897,242252,0.58,-0.81,9.95,-0.03,-0.01,-0.01,31.15
19303195,1949,1,212966,242502,0.57,-0.83,9.98,-0.03,-0.01,-0.00,31.15
19343195,1959,1,213052,242550,0.57,-0.83,9.97,-0.03,-0.01,-0.01,31.15
19383195,1947,1,212940,241841,0.57,-0.82,9.96,-0.03,-0.01,-0.00,31.15
19424195,1936,1,212521,240512,0.57,-0.82,9.94,-0.03,-0.01,-0.01,31.15
19464882,1923,1,212167,239782,0.57,-0.84,9.96,-0.03,-0.01,-0.01,31.25
19503195,1961,1,212062,239643,0.56,-0.83,9.98,-0.03,-0.01,-0.01,31.25
19543195,1953,1,212043,239753,0.56,-0.81,9.95,-0.03,-0.01,-0.00,31.25
19583195,1940,1,212136,240107,0.58,-0.81,9.94,-0.03,-0.01,-0.00,31.25
19623193,1931,1,212258,240466,0.59,-0.82,9.97,-0.03,-0.01,-0.00,31.25
19663195,1943,1,212354,240717,0.55,-0.83,9.97,-0.03,-0.01,-0.00,31.25
19703192,1939,1,212416,240891,0.56,-0.81,9.96,-0.03,-0.01,-0.00,31.25
19743195,1951,1,212477,241203,0.57,-0.82,9.96,-0.03,-0.01,-0.00,31.25
19783192,1958,1,212573,241458,0.56,-0.82,9.96,-0.03,-0.01,-0.00,31.25
19823195,1955,1,212617,241648,0.56,-0.83,9.96,-0.03,-0.01,-0.00,31.25
19863192,1971,1,212717,241912,0.58,-0.79,9.96,-0.03,-0.01,-0.00,31.25
19903195,1968,1,212822,242099,0.57,-0.81,9.95,-0.03,-0.01,-0.01,31.25
19943195,1976,1,212876,242121,0.57,-0.84,9.96,-0.03,-0.01,-0.00,31.25
19983195,1969,1,212921,242033,0.57,-0.82,9.95,-0.03,-0.01,-0.00,31.25
20023211,1961,1,212987,242111,0.60,-0.81,9.96,-0.03,-0.01,-0.00,31.25
20063195,1958,1,212934,241785,0.56,-0.82,9.96,-0.03,-0.01,-0.00,31.25
20103195,1967,1,212595,240475,0.57,-0.81,9.96,-0.03,-0.01,-0.00,31.25
20143195,1953,1,212105,239281,0.56,-0.81,9.99,-0.03,-0.01,-0.01,31.25
20183195,1949,1,211855,238881,0.55,-0.82,9.95,-0.03,-0.01,-0.00,31.25
20223223,1918,1,211715,238615,0.57,-0.81,9.96,-0.03,-0.01,-0.00,31.25
20263195,1904,1,211595,238311,0.57,-0.79,9.97,-0.03,-0.01,-0.00,31.25
20303195,1903,1,211610,238588,0.57,-0.82,9.95,-0.03,-0.01,-0.00,31.25
20343195,1893,1,211770,239084,0.57,-0.82,9.96,-0.03,-0.01,-0.00,31.25
20383195,1917,1,211877,239365,0.56,-0.82,9.97,-0.03,-0.01,-0.00,31.25
20423195,1913,1,211912,239558,0.57,-0.81,9.97,-0.03,-0.01,-0.01,31.25
20462195,1958,1,211941,239726,0.56,-0.82,9.93,-0.03,-0.01,-0.00,31.25
20502879,1904,1,211953,239577,0.57,-0.81,9.98,-0.03,-0.01,-0.00,31.25
20543195,1910,1,211931,239333,0.58,-0.81,9.96,-0.03,-0.01,-0.00,31.25
20583195,1920,1,211873,239508,0.57,-0.82,9.96,-0.03,-0.01,-0.00,31.25
20623195,1930,1,211997,239928,0.57,-0.82,9.95,-0.04,-0.00,-0.01,31.25
20663195,1936,1,212144,240269,0.53,-0.82,9.97,-0.03,-0.01,-0.00,31.25
20703195,1943,1,212168,240508,0.57,-0.83,9.96,-0.03,-0.01,-0.01,31.25
20743195,1935,1,212240,240533,0.55,-0.82,9.95,-0.03,-0.01,-0.00,31.25
20783195,1936,1,212187,239830,0.60,-0.80,9.94,-0.03,-0.01,-0.00,31.25
20823191,1927,1,211735,238290,0.55,-0.80,9.97,-0.03,-0.01,-0.00,31.25
20863195,1919,1,211340,237584,0.57,-0.83,9.96,-0.03,-0.01,-0.01,31.25
20903195,1921,1,211194,237464,0.56,-0.80,9.96,-0.03,-0.01,-0.00,31.25
20943195,1936,1,211206,237520,0.55,-0.83,9.97,-0.03,-0.01,-0.00,31.25
20983192,1934,1,211244,237818,0.58,-0.81,9.96,-0.03,-0.01,-0.00,31.25
21023205,1936,1,211357,238217,0.56,-0.82,9.96,-0.03,-0.01,-0.00,31.25
21063195,1950,1,211493,238512,0.57,-0.82,9.96,-0.03,-0.01,-0.01,31.25
21103195,1935,1,211577,238760,0.56,-0.84,9.95,-0.03,-0.01,-0.00,31.25
21143195,1943,1,211721,239001,0.58,-0.82,9.96,-0.03,-0.01,-0.00,31.25
21183195,1921,1,211877,239353,0.56,-0.81,9.97,-0.03,-0.01,-0.00,31.25
21223195,1921,1,212011,239732,0.57,-0.83,9.95,-0.03,-0.01,-0.00,31.25
21263195,1936,1,212216,240091,0.56,-0.80,9.96,-0.03,-0.01,-0.00,31.25
21303192,1935,1,212371,240398,0.58,-0.81,9.97,-0.03,-0.01,-0.01,31.25
21343195,1935,1,212520,240742,0.57,-0.80,9.98,-0.03,-0.01,-0.00,31.25
21383192,1940,1,212685,241181,0.57,-0.82,9.97,-0.03,-0.01,-0.00,31.25
21423195,1938,1,212898,241612,0.57,-0.81,9.97,-0.03,-0.01,-0.00,31.25
21463195,1936,1,213108,242113,0.54,-0.82,9.94,-0.03,-0.01,-0.00,31.25
21503881,1906,1,213141,241603,0.58,-0.82,9.97,-0.03,-0.01,-0.00,31.11
21542192,1952,1,212820,240618,0.56,-0.81,9.96,-0.04,-0.01,-0.00,31.11
21582195,1953,1,212557,240167,0.56,-0.81,9.98,-0.03,-0.01,-0.00,31.11
21622192,1953,1,212460,240193,0.57,-0.82,9.96,-0.03,-0.01,-0.00,31.11
21662228,1959,1,212463,240402,0.56,-0.83,9.95,-0.03,-0.01,-0.00,31.11
21702192,1953,1,212592,240819,0.56,-0.81,9.94,-0.03,-0.01,-0.01,31.11
21742195,1968,1,212770,241329,0.56,-0.83,9.95,-0.03,-0.01,-0.00,31.11
21782192,1968,1,212971,241946,0.55,-0.80,9.94,-0.03,-0.01,-0.01,31.11
21822195,1957,1,213185,242400,0.58,-0.83,9.96,-0.03,-0.01,-0.00,31.11
21862232,1946,1,213287,242816,0.55,-0.83,9.98,-0.03,-0.01,-0.00,31.11
21902195,1951,1,213428,243313,0.57,-0.83,9.97,-0.03,-0.01,-0.00,31.11
21942192,1949,1,213629,243795,0.57,-0.82,9.98,-0.03,-0.01,-0.01,31.11
21982195,1952,1,213802,244139,0.57,-0.84,9.96,-0.03,-0.01,-0.00,31.11
22022192,1951,1,213867,244480,0.57,-0.84,9.97,-0.03,-0.01,-0.00,31.11
22062195,1959,1,214058,244797,0.57,-0.82,9.94,-0.03,-0.01,-0.00,31.11
22102192,1938,1,214131,245015,0.56,-0.81,9.96,-0.03,-0.01,-0.00,31.11
22142195,1941,1,214213,245177,0.57,-0.83,9.95,-0.03,-0.01,-0.00,31.11
22182192,1936,1,214289,244974,0.57,-0.81,9.97,-0.03,-0.01,-0.00,31.11
22222195,1936,1,214151,244205,0.57,-0.82,9.95,-0.03,-0.01,-0.00,31.11
22262192,1947,1,213930,243740,0.57,-0.83,9.97,-0.03,-0.01,-0.00,31.11
22302195,1950,1,213836,243580,0.58,-0.81,9.97,-0.03,-0.01,-0.00,31.11
22342192,1951,1,213871,243681,0.56,-0.82,9.94,-0.03,-0.01,-0.00,31.11
22382195,1947,1,213930,243824,0.57,-0.79,9.95,-0.03,-0.01,-0.00,31.11
22422192,1941,1,213983,244112,0.56,-0.83,9.95,-0.03,-0.01,-0.00,31.11
22462195,1941,1,214128,244269,0.57,-0.81,9.96,-0.03,-0.01,-0.00,31.11
22502192,1958,1,214207,244444,0.57,-0.82,9.97,-0.03,-0.01,-0.00,31.11
22542882,1936,1,214293,244583,0.57,-0.82,9.94,-0.03,-0.01,-0.01,31.15
22581195,2006,1,214398,244772,0.57,-0.82,9.95,-0.03,-0.01,-0.00,31.15
22621195,2019,1,214403,244984,0.58,-0.80,9.95,-0.03,-0.01,-0.00,31.15
22661192,2007,1,214610,245172,0.58,-0.83,9.97,-0.03,-0.01,-0.00,31.15
22701195,2013,1,214630,245318,0.56,-0.81,9.97,-0.03,-0.01,-0.00,31.15
22741195,2016,1,214736,245488,0.56,-0.82,9.95,-0.03,-0.01,-0.00,31.15
22781195,1999,1,214768,245707,0.57,-0.82,9.97,-0.03,-0.01,-0.01,31.15
22821195,1975,1,214838,245694,0.57,-0.79,9.96,-0.03,-0.01,-0.00,31.15
22861195,1984,1,214769,245000,0.58,-0.82,9.96,-0.03,-0.01,-0.01,31.15
22901195,1983,1,214452,244172,0.57,-0.83,9.95,-0.03,-0.01,-0.00,31.15
22941195,1986,1,214255,243701,0.55,-0.82,9.95,-0.03,-0.01,-0.00,31.15
22981192,1984,1,214174,243446,0.57,-0.80,9.96,-0.03,-0.01,-0.00,31.15
23021206,2000,1,214095,243366,0.57,-0.82,9.96,-0.03,-0.01,-0.00,31.15
23061195,1987,1,214077,243511,0.57,-0.81,9.96,-0.03,-0.01,-0.00,31.15
23101195,1990,1,214109,243638,0.57,-0.80,9.93,-0.03,-0.01,-0.01,31.15
23141195,1990,1,214105,243617,0.57,-0.82,9.94,-0.03,-0.01,-0.00,31.15
23181195,1986,1,214088,243608,0.55,-0.81,9.97,-0.03,-0.01,-0.00,31.15
23221195,1994,1,214060,243730,0.57,-0.82,9.96,-0.03,-0.01,-0.01,31.15
23261195,1979,1,214113,243883,0.57,-0.81,9.96,-0.03,-0.01,-0.00,31.15
23301237,1977,1,214128,244120,0.57,-0.82,9.96,-0.03,-0.01,-0.00,31.15
23341195,1983,1,214241,244298,0.58,-0.82,9.95,-0.03,-0.01,-0.00,31.15
23381195,1983,1,214156,244457,0.57,-0.81,9.96,-0.03,-0.01,-0.00,31.15
23421195,1974,1,214229,244746,0.56,-0.81,9.96,-0.03,-0.01,-0.00,31.15
23461195,1964,1,214344,244972,0.59,-0.82,9.96,-0.03,-0.01,-0.00,31.15
23501221,1965,1,214418,245007,0.57,-0.82,9.97,-0.03,-0.01,-0.00,31.15
23541195,1961,1,214386,244361,0.57,-0.81,9.98,-0.03,-0.01,-0.00,31.15
23581882,1927,1,214063,243327,0.58,-0.82,9.95,-0.03,-0.01,-0.00,31.05
23622195,1933,1,213766,242653,0.56,-0.82,9.95,-0.03,-0.01,-0.00,31.05
23662195,1943,1,213631,242245,0.57,-0.81,9.96,-0.03,-0.01,-0.00,31.05
23702217,1925,1,213488,242095,0.56,-0.80,9.94,-0.03,-0.01,-0.00,31.05
23742195,1936,1,213517,242172,0.57,-0.82,9.94,-0.03,-0.01,-0.00,31.05
23782195,1938,1,213517,242488,0.57,-0.83,9.95,-0.03,-0.01,-0.00,31.05
23822195,1931,1,213551,242665,0.58,-0.81,9.95,-0.03,-0.01,-0.00,31.05
23862195,1953,1,213610,242839,0.59,-0.80,9.96,-0.03,-0.01,-0.01,31.05
23902195,1943,1,213663,242942,0.56,-0.83,9.96,-0.03,-0.01,-0.00,31.05
23942195,1935,1,213714,243113,0.55,-0.83,9.95,-0.03,-0.01,-0.01,31.05
23982195,1943,1,213693,243200,0.57,-0.83,9.96,-0.03,-0.01,-0.00,31.05
24022192,1944,1,213821,243430,0.58,-0.82,9.94,-0.03,-0.01,-0.00,31.05
24062195,1923,1,213893,243508,0.56,-0.81,9.96,-0.03,-0.01,-0.01,31.05
24102195,1927,1,213943,243712,0.57,-0.80,9.95,-0.03,-0.01,-0.00,31.05
24142195,1933,1,214060,243937,0.57,-0.81,9.99,-0.03,-0.01,-0.01,31.05
24182195,1921,1,214184,244078,0.57,-0.82,9.94,-0.03,-0.01,-0.01,31.05
24222195,1923,1,214197,244091,0.57,-0.81,9.95,-0.03,-0.01,-0.00,31.05
24262195,1932,1,214058,243274,0.57,-0.81,9.95,-0.03,-0.01,-0.00,31.05
24302195,1936,1,213685,242092,0.58,-0.81,9.94,-0.03,-0.01,-0.00,31.05
24342195,1935,1,213368,241464,0.56,-0.81,9.95,-0.03,-0.01,-0.01,31.05
24382195,1919,1,213292,241278,0.56,-0.83,9.96,-0.03,-0.01,-0.00,31.05
24422195,1930,1,213170,241323,0.56,-0.81,9.96,-0.03,-0.01,-0.00,31.05
24462195,1927,1,213200,241580,0.57,-0.78,9.95,-0.03,-0.01,-0.00,31.05
24502192,1936,1,213325,241920,0.58,-0.83,9.96,-0.03,-0.01,-0.00,31.05
24542195,1936,1,213446,242104,0.58,-0.82,9.95,-0.03,-0.01,-0.00,31.05
24582881,1931,1,213428,242260,0.57,-0.83,9.95,-0.03,-0.01,-0.00,31.27
24621195,1965,1,213554,242453,0.58,-0.81,9.96,-0.03,-0.01,-0.00,31.27
24661192,1955,1,213534,242688,0.58,-0.81,9.97,-0.03,-0.01,-0.00,31.27
24701195,1943,1,213579,242878,0.57,-0.82,9.97,-0.03,-0.01,-0.00,31.27
24741192,1945,1,213682,243108,0.57,-0.80,9.95,-0.03,-0.01,-0.01,31.27
24781195,1947,1,213760,243330,0.57,-0.82,9.96,-0.03,-0.01,-0.00,31.27
24821192,1936,1,213857,243601,0.56,-0.81,9.96,-0.03,-0.01,-0.00,31.27
24861195,1953,1,213985,243766,0.57,-0.82,9.96,-0.03,-0.01,-0.00,31.27
24901192,1953,1,214023,244066,0.58,-0.81,9.96,-0.03,-0.01,-0.00,31.27
24941212,1950,1,214144,244313,0.57,-0.80,9.97,-0.03,-0.01,-0.00,31.27
24981191,1949,1,214135,244357,0.58,-0.82,9.97,-0.03,-0.01,-0.00,31.27
25021205,1946,1,214047,243514,0.58,-0.79,9.97,-0.03,-0.01,-0.00,31.27
25061192,1947,1,213691,242269,0.55,-0.80,9.96,-0.03,-0.01,-0.00,31.27
25101195,1950,1,213348,241624,0.57,-0.82,9.96,-0.03,-0.01,-0.01,31.27
25141235,1945,1,213187,241400,0.55,-0.82,9.97,-0.03,-0.01,-0.00,31.27
25181195,1952,1,213165,241394,0.56,-0.82,9.97,-0.03,-0.01,-0.00,31.27
25221192,1953,1,213159,241741,0.59,-0.82,9.94,-0.03,-0.01,-0.00,31.27
25261195,1947,1,213343,242129,0.56,-0.83,9.96,-0.03,-0.01,-0.00,31.27
25301192,1941,1,213475,242393,0.57,-0.81,9.95,-0.03,-0.01,-0.00,31.27
25341214,1936,1,213509,242514,0.57,-0.81,9.96,-0.03,-0.01,-0.00,31.27
25381195,1922,1,213542,242711,0.57,-0.84,9.95,-0.03,-0.01,-0.00,31.27
25421195,1930,1,213621,242980,0.57,-0.82,9.95,-0.03,-0.01,-0.00,31.27
25461192,1936,1,213736,243146,0.57,-0.81,9.97,-0.03,-0.01,-0.00,31.27
25501195,1931,1,213791,243419,0.56,-0.83,9.96,-0.03,-0.01,-0.00,31.27
25541192,1937,1,213966,243597,0.58,-0.83,9.94,-0.03,-0.01,-0.00,31.27
25581195,1938,1,214000,243743,0.56,-0.83,9.96,-0.03,-0.01,-0.00,31.27
25621879,1919,1,214131,243927,0.58,-0.82,9.98,-0.03,-0.01,-0.01,31.25
25660195,2006,1,214296,244113,0.58,-0.80,9.94,-0.03,-0.01,-0.00,31.25
25700192,1997,1,214348,244360,0.56,-0.82,9.99,-0.03,-0.01,-0.00,31.25
25740195,2000,1,214461,244627,0.55,-0.81,9.97,-0.03,-0.01,-0.00,31.25
25780195,1993,1,214464,244542,0.57,-0.82,9.96,-0.03,-0.01,-0.00,31.25
25820195,2000,1,214219,243506,0.57,-0.84,9.94,-0.03,-0.01,-0.00,31.25
25860195,1999,1,213851,242649,0.58,-0.81,9.95,-0.03,-0.01,-0.00,31.25
25900195,2000,1,213690,242279,0.56,-0.82,9.97,-0.03,-0.01,-0.00,31.25
25940195,1984,1,213646,242213,0.56,-0.82,9.97,-0.03,-0.01,-0.00,31.25
25980195,1981,1,213623,242305,0.57,-0.80,9.98,-0.03,-0.01,-0.01,31.25
26020192,1968,1,213687,242691,0.57,-0.83,9.97,-0.03,-0.01,-0.00,31.25
26060195,1968,1,213874,242951,0.57,-0.81,9.96,-0.03,-0.01,-0.00,31.25
26100195,1979,1,213816,243237,0.56,-0.81,9.99,-0.03,-0.01,-0.01,31.25
26140195,1983,1,213919,243425,0.57,-0.83,9.98,-0.03,-0.01,-0.00,31.25
26180195,1978,1,213962,243623,0.57,-0.82,9.96,-0.03,-0.01,-0.00,31.25
26220195,1984,1,214003,243797,0.57,-0.83,9.97,-0.03,-0.01,-0.00,31.25
26260195,1989,1,214104,243974,0.57,-0.80,9.95,-0.03,-0.01,-0.00,31.25
26300195,1981,1,214180,244189,0.58,-0.82,9.97,-0.03,-0.01,-0.00,31.25
26340195,1979,1,214249,244452,0.57,-0.82,9.98,-0.03,-0.01,-0.00,31.25
26380195,1968,1,214351,244696,0.56,-0.80,9.95,-0.03,-0.01,-0.00,31.25
26420192,1983,1,214431,245035,0.57,-0.82,9.97,-0.03,-0.01,-0.00,31.25
26460195,1982,1,214538,245261,0.58,-0.83,9.98,-0.03,-0.01,-0.00,31.25
26500192,1983,1,214636,245519,0.55,-0.80,9.95,-0.03,-0.01,-0.00,31.25
26540195,1984,1,214719,245480,0.57,-0.81,9.96,-0.03,-0.01,-0.00,31.25
26580195,1974,1,214522,244653,0.57,-0.82,9.94,-0.03,-0.01,-0.00,31.25
26620195,1980,1,214300,243765,0.55,-0.82,9.97,-0.03,-0.01,-0.01,31.25
26660881,1922,1,214040,243439,0.56,-0.82,9.94,-0.03,-0.01,-0.00,31.29
26701195,1937,1,213991,243436,0.56,-0.81,9.96,-0.03,-0.01,-0.00,31.29
26741195,1936,1,214010,243552,0.56,-0.80,9.95,-0.03,-0.01,-0.00,31.29
26781195,1933,1,214113,243804,0.55,-0.82,9.96,-0.03,-0.01,-0.00,31.29
26821195,1926,1,214192,244148,0.59,-0.81,9.97,-0.03,-0.01,-0.00,31.29
26861195,1941,1,214260,244427,0.56,-0.81,9.97,-0.03,-0.01,-0.00,31.29
26901195,1938,1,214371,244637,0.57,-0.83,9.93,-0.03,-0.01,-0.00,31.29
26941195,1936,1,214407,244935,0.56,-0.81,9.96,-0.03,-0.01,-0.00,31.29
26981197,1925,1,214558,245193,0.57,-0.81,9.97,-0.03,-0.01,-0.00,31.29
27021205,1934,1,214637,245376,0.56,-0.81,9.96,-0.03,-0.01,-0.00,31.29
27061195,1920,1,214723,245551,0.58,-0.81,9.96,-0.03,-0.01,-0.00,31.29
27101195,1931,1,214805,245751,0.58,-0.81,9.97,-0.03,-0.01,-0.01,31.29
27141195,1932,1,214919,245906,0.56,-0.81,9.95,-0.03,-0.01,-0.01,31.29
27181195,1929,1,214893,246091,0.57,-0.81,9.94,-0.03,-0.01,-0.00,31.29
27221195,1929,1,214954,246232,0.57,-0.83,9.98,-0.03,-0.01,-0.00,31.29
27261195,1921,1,215062,246081,0.53,-0.82,9.96,-0.03,-0.01,-0.00,31.29
27301195,1917,1,214871,245322,0.58,-0.82,9.94,-0.03,-0.01,-0.00,31.29
27341195,1931,1,214643,244682,0.57,-0.85,9.96,-0.03,-0.01,-0.01,31.29
27381195,1938,1,214456,244510,0.59,-0.81,9.98,-0.03,-0.01,-0.00,31.29
27421195,1931,1,214448,244574,0.55,-0.80,9.97,-0.03,-0.01,-0.01,31.29
27461195,1930,1,214441,244813,0.56,-0.81,9.96,-0.03,-0.01,-0.00,31.29
27501195,1935,1,214541,244923,0.58,-0.82,9.94,-0.03,-0.01,-0.00,31.29
27541195,1933,1,214566,245010,0.57,-0.84,9.94,-0.03,-0.01,-0.00,31.29
27581195,1925,1,214607,245073,0.59,-0.83,9.96,-0.03,-0.01,-0.01,31.29
27621195,1932,1,214591,245111,0.57,-0.83,9.99,-0.03,-0.01,-0.00,31.29
27661882,1919,1,214584,245285,0.55,-0.81,9.94,-0.03,-0.01,-0.00,31.33
27700192,1958,1,214627,245329,0.56,-0.81,9.96,-0.03,-0.01,-0.00,31.33
27740195,1946,1,214676,245426,0.56,-0.83,9.95,-0.03,-0.01,-0.00,31.33
27780192,1964,1,214724,245668,0.57,-0.83,9.98,-0.03,-0.01,-0.00,31.33
27820195,1954,1,214756,245868,0.57,-0.81,9.97,-0.03,-0.01,-0.00,31.33
27860192,1942,1,214787,246032,0.57,-0.82,9.93,-0.03,-0.01,-0.01,31.33
27900195,1935,1,214805,246188,0.57,-0.83,9.98,-0.03,-0.01,-0.00,31.33
27940192,1935,1,214787,245828,0.56,-0.80,9.96,-0.03,-0.01,-0.01,31.33
27980195,1935,1,214599,244814,0.57,-0.82,9.98,-0.03,-0.01,-0.00,31.33
28020192,1938,1,214316,244206,0.57,-0.82,9.99,-0.03,-0.01,-0.00,31.33
28060195,1935,1,214200,243843,0.56,-0.81,9.96,-0.03,-0.01,-0.00,31.33
28100192,1943,1,214120,243808,0.56,-0.82,9.95,-0.03,-0.01,-0.01,31.33
28140194,1948,1,214066,244057,0.55,-0.79,9.95,-0.03,-0.01,-0.00,31.33
28180192,1951,1,214154,244314,0.56,-0.82,9.95,-0.03,-0.01,-0.01,31.33
28220195,1936,1,214234,244514,0.57,-0.80,9.96,-0.03,-0.01,-0.01,31.33
28260192,1949,1,214320,244556,0.55,-0.82,9.96,-0.03,-0.01,-0.01,31.33
28300195,1936,1,214325,244678,0.57,-0.82,9.98,-0.03,-0.01,-0.00,31.33
28340192,1957,1,214364,244878,0.58,-0.81,9.96,-0.03,-0.01,-0.00,31.33
28380195,1939,1,214498,245034,0.58,-0.81,9.96,-0.03,-0.01,-0.00,31.33
28419192,2003,1,214511,245249,0.55,-0.84,9.96,-0.03,-0.01,-0.00,31.33
28459195,2009,1,214614,245383,0.59,-0.81,9.95,-0.03,-0.01,-0.00,31.33
28499192,1995,1,214690,245577,0.59,-0.82,9.95,-0.03,-0.01,-0.00,31.33
28539195,1997,1,214808,245726,0.57,-0.81,9.93,-0.03,-0.01,-0.00,31.33
28579192,1989,1,214818,245939,0.56,-0.82,9.96,-0.03,-0.01,-0.00,31.33
28619195,1999,1,214821,245509,0.57,-0.81,9.93,-0.03,-0.01,-0.00,31.33
28659192,1986,1,214560,244388,0.58,-0.81,9.99,-0.03,-0.01,-0.01,31.33
28699882,1913,1,214230,243492,0.57,-0.80,9.96,-0.03,-0.01,-0.00,31.25
28740192,1926,1,214030,243101,0.56,-0.82,9.94,-0.03,-0.01,-0.00,31.25
28780195,1942,1,213967,243034,0.57,-0.79,9.99,-0.03,-0.01,-0.00,31.25
28820195,1935,1,213909,243256,0.58,-0.83,9.94,-0.03,-0.01,-0.00,31.25
28860195,1934,1,213939,243494,0.55,-0.81,9.96,-0.03,-0.01,-0.00,31.25
28900195,1927,1,214019,243670,0.57,-0.82,9.97,-0.03,-0.01,-0.00,31.25
28940195,1942,1,214089,243830,0.56,-0.81,9.96,-0.03,-0.01,-0.00,31.25
28980192,1936,1,214138,243957,0.54,-0.81,9.96,-0.03,-0.01,-0.00,31.25
29020195,1940,1,214208,244082,0.57,-0.83,9.98,-0.03,-0.01,-0.00,31.25
29060194,1942,1,214219,244286,0.57,-0.80,9.97,-0.03,-0.01,-0.00,31.25
29100195,1937,1,214297,244458,0.56,-0.82,9.95,-0.03,-0.01,-0.01,31.25
29140195,1936,1,214386,244622,0.58,-0.82,9.96,-0.03,-0.01,-0.00,31.25
29180195,1933,1,214415,244842,0.58,-0.81,9.97,-0.03,-0.01,-0.00,31.25
29220195,1936,1,214444,245183,0.57,-0.83,9.97,-0.03,-0.01,-0.00,31.25
29260195,1927,1,214484,245347,0.58,-0.82,9.98,-0.03,-0.01,-0.00,31.25
29300195,1927,1,214521,245065,0.55,-0.82,9.96,-0.03,-0.01,-0.00,31.25
29340195,1943,1,214307,244073,0.55,-0.81,9.96,-0.03,-0.01,-0.00,31.25
29380195,1936,1,213907,243072,0.57,-0.81,9.97,-0.03,-0.01,-0.00,31.25
29420195,1927,1,213660,242581,0.55,-0.81,9.96,-0.03,-0.01,-0.00,31.25
29460195,1929,1,213652,242469,0.54,-0.81,10.00,-0.03,-0.01,-0.00,31.25
29500195,1925,1,213622,242575,0.56,-0.82,9.96,-0.03,-0.01,-0.00,31.25
29540195,1943,1,213699,242849,0.55,-0.82,9.96,-0.03,-0.01,-0.00,31.25
29580195,1945,1,213729,242992,0.57,-0.81,9.97,-0.03,-0.01,-0.00,31.25
29620195,1935,1,213760,243131,0.56,-0.82,9.96,-0.03,-0.01,-0.01,31.25
29660194,1939,1,213791,243321,0.57,-0.82,9.98,-0.03,-0.01,-0.00,31.25
29700882,1921,1,213805,243526,0.56,-0.82,9.97,-0.03,-0.01,-0.00,31.33
29739195,1968,1,213869,243689,0.57,-0.82,9.96,-0.03,-0.01,-0.00,31.33
29779195,1962,1,213958,243813,0.59,-0.83,9.96,-0.03,-0.01,-0.01,31.33
29819195,1954,1,214039,243971,0.57,-0.82,9.95,-0.03,-0.01,-0.00,31.33
29859193,1951,1,214137,244197,0.57,-0.81,9.96,-0.03,-0.01,-0.01,31.33
29899195,1951,1,214186,244402,0.57,-0.82,9.96,-0.03,-0.01,-0.00,31.33
29939192,1959,1,214250,244666,0.56,-0.81,9.97,-0.03,-0.01,-0.00,31.33
29979195,1961,1,214361,244719,0.55,-0.83,9.96,-0.03,-0.01,-0.00,31.33
30019192,1959,1,214355,244127,0.55,-0.82,9.95,-0.03,-0.01,-0.01,31.33
30059237,1963,1,214014,242836,0.57,-0.80,9.97,-0.03,-0.01,-0.00,31.33
30099192,1965,1,213680,242020,0.57,-0.80,9.95,-0.03,-0.01,-0.00,31.33
30139195,1965,1,213486,241785,0.56,-0.80,9.97,-0.03,-0.01,-0.00,31.33
30179192,1962,1,213370,241786,0.57,-0.81,9.93,-0.03,-0.01,-0.01,31.33
30219195,1968,1,213356,241969,0.56,-0.82,9.97,-0.03,-0.01,-0.01,31.33
30259235,1963,1,213337,242233,0.56,-0.81,9.95,-0.03,-0.01,-0.00,31.33
30299195,1963,1,213442,242310,0.58,-0.80,9.96,-0.03,-0.01,-0.00,31.33
30339192,1964,1,213443,242417,0.56,-0.82,9.96,-0.03,-0.01,-0.00,31.33
30379195,1970,1,213406,242498,0.54,-0.80,9.97,-0.03,-0.01,-0.01,31.33
30419192,1963,1,213470,242643,0.57,-0.82,9.96,-0.03,-0.01,-0.00,31.33
30459195,1953,1,213599,242905,0.57,-0.82,9.98,-0.03,-0.01,-0.00,31.33
30499193,1938,1,213705,243048,0.56,-0.82,9.96,-0.03,-0.01,-0.00,31.33
30539195,1942,1,213771,243318,0.56,-0.82,9.97,-0.03,-0.01,-0.00,31.33
30579193,1947,1,213857,243574,0.56,-0.83,9.96,-0.03,-0.01,-0.00,31.33
30619195,1943,1,213868,243860,0.57,-0.80,9.98,-0.03,-0.01,-0.00,31.33
30659192,1939,1,213990,244086,0.58,-0.82,9.96,-0.03,-0.01,-0.01,31.33
30699195,1957,1,214055,244286,0.56,-0.81,9.95,-0.03,-0.01,-0.00,31.33
30739879,1920,1,213988,243776,0.57,-0.81,9.95,-0.03,-0.01,-0.00,31.39
30780195,1918,1,213745,242710,0.56,-0.80,9.98,-0.03,-0.01,-0.00,31.39
30820193,1931,1,213332,241840,0.55,-0.81,9.95,-0.03,-0.01,-0.01,31.39
30860195,1917,1,213218,241671,0.56,-0.80,9.96,-0.03,-0.01,-0.00,31.39
30900193,1937,1,213176,241632,0.58,-0.81,9.97,-0.03,-0.01,-0.00,31.39
30940195,1923,1,213182,241834,0.57,-0.83,9.96,-0.03,-0.01,-0.00,31.39
30980192,1936,1,213258,242128,0.57,-0.80,9.97,-0.03,-0.01,-0.00,31.39
31020195,1936,1,213348,242384,0.56,-0.83,9.97,-0.03,-0.01,-0.01,31.39
31060195,1933,1,213418,242461,0.58,-0.81,9.95,-0.03,-0.01,-0.00,31.39
31100195,1933,1,213482,242639,0.56,-0.81,9.97,-0.03,-0.01,-0.00,31.39
31140194,1934,1,213514,242865,0.58,-0.81,9.96,-0.03,-0.01,-0.00,31.39
31180195,1929,1,213589,243087,0.57,-0.83,9.96,-0.03,-0.01,-0.00,31.39
31220195,1920,1,213659,243337,0.57,-0.83,9.96,-0.03,-0.01,-0.00,31.39
31258195,2000,1,213772,243542,0.57,-0.80,9.96,-0.03,-0.01,-0.00,31.39
31298192,2006,1,213883,243797,0.56,-0.81,9.98,-0.03,-0.01,-0.00,31.39
31338195,2019,1,213996,244005,0.57,-0.79,9.94,-0.03,-0.01,-0.00,31.39
31378195,2005,1,214113,244127,0.57,-0.81,9.96,-0.03,-0.01,-0.00,31.39
31418195,2005,1,214207,244326,0.55,-0.81,9.96,-0.03,-0.01,-0.00,31.39
31458192,2017,1,214261,244241,0.56,-0.81,10.00,-0.03,-0.01,-0.00,31.39
31499195,1939,1,214127,243207,0.57,-0.79,9.95,-0.03,-0.01,-0.00,31.39
31539195,1938,1,213773,242240,0.57,-0.82,9.94,-0.03,-0.01,-0.00,31.39
31579195,1948,1,213484,241781,0.57,-0.82,9.95,-0.03,-0.01,-0.00,31.39
31619193,1947,1,213493,241770,0.56,-0.82,9.93,-0.03,-0.01,-0.00,31.39
31659195,1943,1,213513,241926,0.57,-0.79,9.96,-0.03,-0.01,-0.00,31.39
31699208,1947,1,213609,242341,0.55,-0.81,9.95,-0.03,-0.01,-0.00,31.39
31739881,1913,1,213717,242711,0.55,-0.82,9.96,-0.03,-0.01,-0.00,31.21
31778192,1984,1,213727,242936,0.56,-0.81,9.93,-0.03,-0.01,-0.00,31.21
31818194,1981,1,213784,243068,0.58,-0.81,9.96,-0.03,-0.01,-0.00,31.21
31858195,1989,1,213849,243288,0.54,-0.81,9.97,-0.03,-0.01,-0.00,31.21
31898199,1975,1,213903,243577,0.56,-0.81,9.96,-0.03,-0.01,-0.00,31.21
31938195,1987,1,214062,243764,0.56,-0.79,9.95,-0.03,-0.01,-0.00,31.21
31978196,1991,1,214177,243875,0.58,-0.80,9.96,-0.03,-0.01,-0.00,31.21
32018192,1983,1,214176,244157,0.57,-0.82,9.95,-0.03,-0.01,-0.01,31.21
32058195,1983,1,214227,244379,0.57,-0.81,9.95,-0.03,-0.01,-0.00,31.21
32098195,1973,1,214269,244446,0.56,-0.82,9.98,-0.03,-0.01,-0.00,31.21
32138195,1984,1,214334,244655,0.57,-0.83,9.97,-0.03,-0.01,-0.00,31.21
32178195,1987,1,214296,244297,0.58,-0.83,9.96,-0.03,-0.01,-0.00,31.21
32218195,1980,1,214059,243252,0.57,-0.82,9.94,-0.03,-0.01,-0.01,31.21
32258195,1982,1,213714,242433,0.58,-0.82,9.97,-0.03,-0.01,-0.00,31.21
32298195,1982,1,213614,242137,0.57,-0.81,9.96,-0.03,-0.01,-0.00,31.21
32338195,1979,1,213551,242122,0.57,-0.81,9.98,-0.03,-0.01,-0.00,31.21
32378195,1959,1,213554,242319,0.57,-0.81,9.95,-0.03,-0.01,-0.00,31.21
32418195,1951,1,213606,242597,0.57,-0.82,9.96,-0.03,-0.01,-0.01,31.21
32458195,1961,1,213645,242816,0.57,-0.81,9.96,-0.03,-0.01,-0.00,31.21
32498192,1965,1,213657,242956,0.56,-0.81,9.99,-0.03,-0.01,-0.00,31.21
32539194,1936,1,213636,243042,0.57,-0.83,9.97,-0.03,-0.01,-0.00,31.21
32579195,1933,1,213693,243241,0.56,-0.80,9.98,-0.03,-0.01,-0.00,31.21
32619195,1942,1,213806,243396,0.56,-0.82,9.96,-0.03,-0.01,-0.00,31.21
32659195,1932,1,213898,243533,0.55,-0.81,9.94,-0.03,-0.01,-0.00,31.21
32699195,1937,1,214117,243697,0.57,-0.81,9.95,-0.03,-0.01,-0.00,31.21
32739194,1922,1,214173,244004,0.57,-0.80,9.96,-0.03,-0.01,-0.00,31.21
32779881,1923,1,214230,244153,0.56,-0.83,9.97,-0.03,-0.01,-0.00,31.01
32818192,1967,1,214235,244274,0.56,-0.80,9.96,-0.03,-0.01,-0.00,31.01
32858195,1962,1,214215,243639,0.57,-0.81,9.96,-0.03,-0.01,-0.00,31.01
32898192,1965,1,213956,242271,0.56,-0.80,9.99,-0.03,-0.01,-0.00,31.01
32938195,1959,1,213543,241179,0.57,-0.81,9.96,-0.03,-0.01,-0.00,31.01
32978192,1952,1,213308,240690,0.56,-0.81,9.97,-0.03,-0.01,-0.01,31.01
33018196,1936,1,213194,240613,0.58,-0.81,9.93,-0.03,-0.01,-0.00,31.01
33058192,1950,1,213199,240853,0.57,-0.78,9.96,-0.03,-0.01,-0.00,31.01
33098195,1941,1,213239,241319,0.56,-0.82,9.95,-0.03,-0.01,-0.00,31.01
33138192,1937,1,213367,241577,0.56,-0.83,9.98,-0.03,-0.01,-0.00,31.01
33178195,1947,1,213465,241690,0.55,-0.83,9.91,-0.03,-0.01,-0.00,31.01
33218192,1945,1,213459,241838,0.57,-0.81,9.96,-0.03,-0.01,-0.00,31.01
33258196,1945,1,213533,242082,0.57,-0.80,9.97,-0.03,-0.01,-0.01,31.01
33298192,1947,1,213541,242207,0.56,-0.80,9.95,-0.03,-0.01,-0.00,31.01
33338199,1947,1,213547,242256,0.57,-0.80,9.96,-0.03,-0.01,-0.00,31.01
33378191,1939,1,213627,242552,0.56,-0.81,9.97,-0.03,-0.01,-0.00,31.01
33418196,1952,1,213710,242730,0.57,-0.81,9.95,-0.03,-0.01,-0.00,31.01
33458192,1950,1,213744,242911,0.55,-0.81,9.97,-0.03,-0.01,-0.00,31.01
33498195,1953,1,213848,243210,0.55,-0.81,9.94,-0.03,-0.01,-0.00,31.01
33539195,1937,1,213856,243111,0.58,-0.80,9.96,-0.03,-0.01,-0.00,31.01
33579196,1939,1,213751,242144,0.57,-0.82,9.96,-0.03,-0.01,-0.00,31.01
33619195,1945,1,213101,240540,0.58,-0.80,9.95,-0.03,-0.01,-0.01,31.01
33659195,1927,1,212759,239848,0.57,-0.82,9.96,-0.03,-0.01,-0.00,31.01
33699195,1922,1,212694,239623,0.55,-0.81,9.95,-0.03,-0.01,-0.00,31.01
33739196,1922,1,212606,239620,0.58,-0.80,9.99,-0.03,-0.01,-0.00,31.01
33779878,1919,1,212654,239940,0.56,-0.82,9.98,-0.03,-0.01,-0.00,31.13
33818195,1946,1,212815,240324,0.56,-0.82,9.96,-0.03,-0.01,-0.00,31.13
33858192,1957,1,212858,240470,0.55,-0.81,9.95,-0.03,-0.01,-0.00,31.13
33898195,1964,1,212924,240717,0.56,-0.83,9.96,-0.03,-0.01,-0.00,31.13
33938193,1958,1,213052,240919,0.55,-0.79,9.96,-0.03,-0.01,-0.00,31.13
33978195,1943,1,213196,241165,0.57,-0.80,9.98,-0.03,-0.01,-0.00,31.13
34018192,1956,1,213301,241523,0.57,-0.81,9.97,-0.03,-0.01,-0.00,31.13
34058195,1961,1,213339,241695,0.57,-0.81,9.95,-0.03,-0.01,-0.00,31.13
34098195,1941,1,213485,241981,0.57,-0.81,9.97,-0.03,-0.01,-0.00,31.13
34138195,1946,1,213587,242210,0.57,-0.81,9.96,-0.03,-0.01,-0.00,31.13
34178192,1945,1,213691,242354,0.57,-0.79,9.97,-0.03,-0.01,-0.00,31.13
34218195,1963,1,213769,242444,0.57,-0.80,9.98,-0.03,-0.01,-0.00,31.13
34258192,1946,1,213779,242675,0.55,-0.83,9.96,-0.03,-0.01,-0.00,31.13
34298195,1932,1,213839,242359,0.56,-0.80,9.96,-0.03,-0.01,-0.01,31.13
34338195,1942,1,213505,240976,0.57,-0.81,9.95,-0.03,-0.01,-0.00,31.13
34378195,1941,1,213128,239858,0.57,-0.81,9.99,-0.03,-0.01,-0.00,31.13
34418195,1929,1,212926,239559,0.57,-0.82,9.96,-0.03,-0.01,-0.01,31.13
34458195,1939,1,212792,239531,0.57,-0.83,9.97,-0.03,-0.01,-0.00,31.13
34498192,1941,1,212775,239624,0.54,-0.79,9.95,-0.03,-0.01,-0.00,31.13
34538195,1937,1,212931,239905,0.55,-0.82,9.97,-0.03,-0.01,-0.00,31.13
34578195,1936,1,213098,240335,0.57,-0.81,9.97,-0.03,-0.01,-0.00,31.13
34618195,1931,1,213240,240571,0.57,-0.82,9.96,-0.03,-0.01,-0.00,31.13
34658195,1941,1,213331,240795,0.55,-0.81,9.95,-0.03,-0.01,-0.01,31.13
34698195,1936,1,213440,241229,0.56,-0.81,9.97,-0.03,-0.01,-0.00,31.13
34738195,1943,1,213585,241424,0.57,-0.80,9.95,-0.03,-0.01,-0.00,31.13
34778195,1937,1,213583,241812,0.57,-0.81,9.94,-0.03,-0.01,-0.00,31.13
34818881,1922,1,213641,242192,0.56,-0.81,9.96,-0.03,-0.01,-0.00,31.05
34857195,1996,1,213691,242450,0.56,-0.82,9.96,-0.03,-0.01,-0.00,31.05
34897195,1973,1,213832,242740,0.57,-0.82,9.96,-0.03,-0.01,-0.00,31.05
34937195,1959,1,213895,243078,0.58,-0.83,9.97,-0.03,-0.01,-0.01,31.05
34977195,1962,1,214091,243282,0.55,-0.83,9.94,-0.03,-0.01,-0.00,31.05
35017195,1966,1,214228,243654,0.57,-0.82,9.97,-0.03,-0.01,-0.00,31.05
35057192,1963,1,214329,244020,0.56,-0.81,9.97,-0.03,-0.01,-0.00,31.05
35097195,1970,1,214410,243685,0.57,-0.83,9.95,-0.03,-0.01,-0.00,31.05
35137192,1977,1,214188,242585,0.57,-0.82,9.96,-0.03,-0.01,-0.00,31.05
35177198,1978,1,213874,241797,0.56,-0.81,9.97,-0.03,-0.01,-0.00,31.05
35217192,1966,1,213767,241598,0.57,-0.82,9.93,-0.03,-0.01,-0.00,31.05
35257195,1968,1,213750,241678,0.59,-0.83,9.94,-0.03,-0.01,-0.00,31.05
35297192,1969,1,213728,241954,0.57,-0.80,9.96,-0.03,-0.01,-0.00,31.05
35337195,1967,1,213793,242418,0.57,-0.79,9.96,-0.04,-0.01,-0.00,31.05
35377192,1954,1,213919,242706,0.56,-0.81,9.95,-0.03,-0.01,-0.01,31.05
35417195,1971,1,214018,242782,0.56,-0.82,9.95,-0.03,-0.01,-0.00,31.05
35457192,1965,1,214090,243033,0.57,-0.82,9.97,-0.03,-0.01,-0.00,31.05
35497195,1974,1,214098,243191,0.56,-0.81,9.97,-0.03,-0.01,-0.00,31.05
35537192,1968,1,214272,243423,0.56,-0.80,9.93,-0.03,-0.01,-0.00,31.05
35577195,1955,1,214368,243659,0.58,-0.82,9.96,-0.03,-0.01,-0.00,31.05
35617192,1951,1,214491,243926,0.57,-0.83,9.95,-0.03,-0.01,-0.00,31.05
35657195,1939,1,214627,244023,0.56,-0.81,9.96,-0.03,-0.01,-0.01,31.05
35697195,1936,1,214685,244155,0.56,-0.82,9.96,-0.03,-0.01,-0.01,31.05
35737196,1946,1,214713,244443,0.59,-0.81,9.98,-0.03,-0.01,-0.00,31.05
35777192,1950,1,214729,244641,0.57,-0.83,9.97,-0.03,-0.01,-0.00,31.05
35817195,1943,1,214813,244843,0.56,-0.79,9.99,-0.03,-0.01,-0.00,31.05
35857879,1921,1,214794,244236,0.56,-0.82,9.96,-0.03,-0.01,-0.00,31.11
35898195,1931,1,214462,243243,0.58,-0.81,9.94,-0.03,-0.01,-0.00,31.11
35938195,1925,1,214149,242717,0.57,-0.83,9.97,-0.03,-0.01,-0.01,31.11
35978195,1936,1,214091,242452,0.55,-0.79,9.95,-0.03,-0.01,-0.00,31.11
36018192,1938,1,214043,242501,0.58,-0.81,9.95,-0.03,-0.01,-0.00,31.11
36058195,1936,1,214049,242726,0.55,-0.79,9.98,-0.03,-0.01,-0.00,31.11
36098195,1946,1,214175,243013,0.56,-0.81,9.97,-0.03,-0.01,-0.01,31.11
36138195,1946,1,214242,243094,0.57,-0.84,9.94,-0.03,-0.01,-0.00,31.11
36178195,1949,1,214122,243239,0.58,-0.81,9.97,-0.03,-0.01,-0.01,31.11
36218195,1927,1,214057,243417,0.58,-0.83,9.97,-0.03,-0.01,-0.01,31.11
36258195,1929,1,214180,243551,0.55,-0.84,9.97,-0.03,-0.01,-0.00,31.11
36298195,1922,1,214287,243784,0.57,-0.81,9.96,-0.03,-0.01,-0.00,31.11
36338195,1929,1,214357,243937,0.57,-0.81,9.95,-0.03,-0.01,-0.00,31.11
36378195,1930,1,214354,244121,0.58,-0.82,9.93,-0.03,-0.01,-0.01,31.11
36418195,1929,1,214451,244194,0.55,-0.81,9.96,-0.03,-0.01,-0.00,31.11
36458195,1935,1,214455,244385,0.57,-0.84,9.96,-0.03,-0.01,-0.00,31.11
36498192,1935,1,214538,244418,0.56,-0.83,9.98,-0.03,-0.01,-0.00,31.11
36538195,1921,1,214516,244116,0.57,-0.83,9.97,-0.03,-0.01,-0.00,31.11
36578195,1922,1,214226,243095,0.57,-0.79,9.95,-0.03,-0.01,-0.00,31.11
36618195,1931,1,213852,242082,0.56,-0.83,9.98,-0.03,-0.01,-0.00,31.11
36658195,1932,1,213638,241565,0.56,-0.82,9.95,-0.03,-0.01,-0.00,31.11
36698195,1949,1,213472,241397,0.57,-0.80,9.96,-0.03,-0.01,-0.00,31.11
36736192,2010,1,213509,241397,0.57,-0.79,9.97,-0.03,-0.01,-0.00,31.11
36776195,2019,1,213572,241582,0.58,-0.81,9.98,-0.03,-0.01,-0.00,31.11
36816192,2002,1,213635,241746,0.56,-0.81,9.96,-0.03,-0.01,-0.00,31.11
36856195,2000,1,213589,241771,0.57,-0.82,9.98,-0.03,-0.01,-0.00,31.11
36896879,1935,1,213621,241848,0.57,-0.83,9.96,-0.03,-0.01,-0.00,31.05
36937195,1924,1,213708,241894,0.57,-0.80,9.93,-0.03,-0.01,-0.00,31.05
36977191,1926,1,213791,242036,0.57,-0.79,9.96,-0.03,-0.01,-0.01,31.05
37017229,1925,1,213811,242354,0.58,-0.82,9.98,-0.03,-0.01,-0.00,31.05
37057195,1930,1,213895,242558,0.57,-0.81,9.98,-0.03,-0.01,-0.00,31.05
37097195,1935,1,213964,242813,0.56,-0.80,9.96,-0.03,-0.01,-0.00,31.05
37137192,1933,1,214055,243131,0.56,-0.81,9.95,-0.03,-0.01,-0.00,31.05
37177195,1941,1,214128,243317,0.56,-0.82,9.98,-0.03,-0.01,-0.00,31.05
37217195,1939,1,214177,243624,0.55,-0.82,9.93,-0.03,-0.01,-0.00,31.05
37257195,1936,1,214252,243481,0.56,-0.82,9.97,-0.03,-0.01,-0.01,31.05
37297195,1937,1,214016,242323,0.57,-0.82,9.95,-0.03,-0.01,-0.00,31.05
37337195,1935,1,213585,241128,0.58,-0.82,9.96,-0.03,-0.01,-0.00,31.05
37377195,1942,1,213271,240543,0.59,-0.81,9.93,-0.03,-0.01,-0.00,31.05
37417195,1955,1,213122,240326,0.57,-0.81,9.98,-0.03,-0.01,-0.00,31.05
37457195,1939,1,213090,240346,0.55,-0.82,9.97,-0.03,-0.01,-0.00,31.05
37497195,1936,1,213074,240624,0.57,-0.83,9.97,-0.03,-0.01,-0.00,31.05
37537195,1926,1,213188,240897,0.58,-0.81,9.94,-0.03,-0.01,-0.00,31.05
37577195,1933,1,213237,241081,0.56,-0.80,9.93,-0.03,-0.01,-0.00,31.05
37617192,1919,1,213286,241288,0.57,-0.81,9.95,-0.03,-0.01,-0.00,31.05
37657195,1920,1,213359,241430,0.57,-0.82,9.97,-0.03,-0.01,-0.00,31.05
37697195,1927,1,213373,241697,0.56,-0.80,9.96,-0.03,-0.01,-0.00,31.05
37737195,1922,1,213509,241955,0.56,-0.81,9.98,-0.03,-0.01,-0.00,31.05
37777195,1931,1,213548,242231,0.56,-0.82,9.97,-0.03,-0.01,-0.00,31.05
37817195,1925,1,213696,242369,0.56,-0.81,9.94,-0.03,-0.01,-0.00,31.05
37857195,1927,1,213709,242744,0.57,-0.82,9.97,-0.03,-0.01,-0.01,31.05
37897882,1920,1,213834,242970,0.56,-0.82,9.97,-0.03,-0.01,-0.01,31.01
37936195,1965,1,213861,243212,0.57,-0.79,9.96,-0.03,-0.01,-0.00,31.01
37976195,1970,1,213933,243105,0.57,-0.82,9.96,-0.03,-0.01,-0.00,31.01
38016192,1969,1,213743,241791,0.57,-0.79,9.99,-0.03,-0.01,-0.00,31.01
38056195,1985,1,213243,240538,0.57,-0.82,9.97,-0.03,-0.01,-0.00,31.01
38096195,1978,1,212978,239821,0.56,-0.81,9.99,-0.03,-0.01,-0.00,31.01
38136195,1965,1,212792,239606,0.57,-0.82,9.99,-0.03,-0.01,-0.00,31.01
38176192,1979,1,212790,239738,0.55,-0.81,9.98,-0.03,-0.01,-0.00,31.01
38216195,1961,1,212830,240132,0.55,-0.81,9.95,-0.03,-0.01,-0.00,31.01
38256192,1967,1,213041,240549,0.56,-0.81,9.98,-0.03,-0.01,-0.00,31.01
38296195,1956,1,213188,240725,0.57,-0.81,9.97,-0.03,-0.01,-0.00,31.01
38336192,1962,1,213259,241009,0.57,-0.82,9.96,-0.03,-0.01,-0.00,31.01
38376195,1953,1,213413,241143,0.55,-0.81,9.98,-0.03,-0.01,-0.01,31.01
38416195,1952,1,213480,241569,0.56,-0.83,9.96,-0.03,-0.01,-0.01,31.01
38456236,1963,1,213586,241902,0.57,-0.82,9.98,-0.03,-0.01,-0.00,31.01
38496192,1940,1,213718,242138,0.55,-0.81,9.97,-0.03,-0.01,-0.00,31.01
38536195,1944,1,213776,242475,0.56,-0.82,9.97,-0.03,-0.01,-0.00,31.01
38576192,1945,1,213931,242789,0.56,-0.81,9.93,-0.03,-0.01,-0.00,31.01
38616195,1954,1,214061,243037,0.57,-0.81,9.95,-0.03,-0.01,-0.00,31.01
38656217,1946,1,214126,243309,0.57,-0.82,9.99,-0.03,-0.01,-0.00,31.01
38696195,1950,1,214181,243060,0.56,-0.81,9.94,-0.03,-0.01,-0.00,31.01
38736192,1941,1,213908,241864,0.57,-0.81,9.94,-0.03,-0.01,-0.00,31.01
38776196,1931,1,213478,240799,0.55,-0.81,9.96,-0.03,-0.01,-0.00,31.01
38816192,1938,1,213225,240409,0.56,-0.82,9.97,-0.03,-0.01,-0.00,31.01
38856195,1940,1,213217,240343,0.57,-0.82,9.93,-0.03,-0.01,-0.00,31.01
38896192,1939,1,213203,240454,0.53,-0.83,9.96,-0.03,-0.01,-0.00,31.01
38936882,1920,1,213215,240930,0.57,-0.82,9.96,-0.03,-0.01,-0.00,31.11
38977192,1935,1,213420,241279,0.57,-0.81,9.97,-0.03,-0.01,-0.00,31.11
39017195,1936,1,213491,241593,0.55,-0.83,9.96,-0.03,-0.01,-0.00,31.11
39057195,1932,1,213556,241845,0.54,-0.81,9.98,-0.03,-0.01,-0.01,31.11
39097195,1920,1,213653,242069,0.58,-0.81,9.97,-0.03,-0.01,-0.00,31.11
39137195,1926,1,213730,242325,0.56,-0.81,9.95,-0.03,-0.01,-0.00,31.11
39177195,1935,1,213850,242629,0.59,-0.81,9.95,-0.03,-0.01,-0.00,31.11
39217195,1918,1,213886,242946,0.57,-0.84,10.00,-0.03,-0.01,-0.01,31.11
39255195,2007,1,214030,243252,0.57,-0.82,9.94,-0.03,-0.01,-0.00,31.11
39295192,2000,1,214102,243529,0.57,-0.80,9.95,-0.03,-0.01,-0.00,31.11
39335195,1994,1,214209,243762,0.54,-0.80,9.96,-0.03,-0.01,-0.00,31.11
39375210,1981,1,214291,243807,0.58,-0.81,9.96,-0.03,-0.01,-0.00,31.11
39415195,1990,1,214273,242818,0.58,-0.82,9.95,-0.03,-0.01,-0.00,31.11
39455192,1992,1,213910,241673,0.56,-0.82,9.95,-0.03,-0.01,-0.00,31.11
39495195,1984,1,213670,241181,0.57,-0.82,9.95,-0.03,-0.01,-0.00,31.11
39535192,1993,1,213641,240998,0.56,-0.83,9.95,-0.03,-0.01,-0.00,31.11
39575195,1999,1,213576,241168,0.57,-0.82,9.96,-0.03,-0.01,-0.00,31.11
39615192,1983,1,213598,241555,0.57,-0.81,9.97,-0.03,-0.01,-0.00,31.11
39655195,1993,1,213745,241777,0.58,-0.83,9.96,-0.03,-0.01,-0.01,31.11
39695195,1986,1,213772,241979,0.56,-0.81,9.95,-0.03,-0.01,-0.00,31.11
39735195,2001,1,213850,242046,0.57,-0.81,9.94,-0.03,-0.01,-0.00,31.11
39775195,1997,1,213865,242247,0.56,-0.81,9.97,-0.03,-0.01,-0.00,31.11
39815195,1987,1,213987,242382,0.57,-0.81,9.97,-0.03,-0.01,-0.00,31.11
39855195,1986,1,213997,242567,0.55,-0.83,9.94,-0.03,-0.01,-0.00,31.11
39895195,1977,1,214066,242770,0.55,-0.82,9.93,-0.03,-0.01,-0.00,31.11
39935195,1979,1,214103,243013,0.56,-0.82,9.95,-0.03,-0.01,-0.00,31.11
39975882,1939,1,214141,243160,0.57,-0.81,9.97,-0.03,-0.01,-0.00,30.91
40016192,1936,1,214127,243412,0.56,-0.82,9.95,-0.03,-0.01,-0.01,30.91
40056195,1915,1,214186,242992,0.54,-0.81,9.96,-0.03,-0.01,-0.00,30.91
40096209,1915,1,213811,241662,0.57,-0.81,9.96,-0.03,-0.01,-0.00,30.91
40136195,1917,1,213486,240580,0.54,-0.83,9.94,-0.03,-0.01,-0.00,30.91
40176195,1914,1,213203,240183,0.57,-0.83,9.96,-0.03,-0.01,-0.00,30.91
40216195,1920,1,213110,239919,0.55,-0.83,9.99,-0.03,-0.01,-0.01,30.91
40256195,1932,1,213150,240093,0.55,-0.83,9.95,-0.03,-0.01,-0.00,30.91
40296230,1935,1,213233,240530,0.56,-0.81,9.97,-0.03,-0.01,-0.00,30.91
40336195,1927,1,213410,240818,0.55,-0.82,9.96,-0.03,-0.01,-0.00,30.91
40376195,1934,1,213472,241055,0.58,-0.82,9.95,-0.03,-0.01,-0.01,30.91
40416195,1920,1,213504,241223,0.57,-0.80,9.98,-0.03,-0.01,-0.00,30.91
40456195,1929,1,213518,241492,0.57,-0.84,9.98,-0.03,-0.01,-0.00,30.91
40496211,1930,1,213616,241707,0.59,-0.81,9.97,-0.03,-0.01,-0.01,30.91
40536195,1939,1,213749,242019,0.57,-0.82,9.96,-0.03,-0.01,-0.00,30.91
40576195,1941,1,213866,242206,0.56,-0.82,9.96,-0.03,-0.01,-0.00,30.91
40616195,1948,1,213873,242543,0.56,-0.82,9.96,-0.03,-0.01,-0.01,30.91
40656195,1936,1,214044,242784,0.56,-0.81,9.94,-0.03,-0.01,-0.01,30.91
40696195,1923,1,214131,242947,0.56,-0.81,9.95,-0.03,-0.01,-0.00,30.91
40736195,1927,1,214184,242754,0.55,-0.82,9.97,-0.03,-0.01,-0.00,30.91
40776195,1919,1,213914,241361,0.57,-0.82,9.97,-0.03,-0.01,-0.01,30.91
40816195,1925,1,213466,240039,0.57,-0.81,9.96,-0.03,-0.01,-0.00,30.91
40856195,1933,1,213167,239378,0.55,-0.81,9.96,-0.03,-0.01,-0.00,30.91
40896195,1935,1,213049,239167,0.57,-0.81,9.92,-0.03,-0.01,-0.00,30.91
40936195,1931,1,212951,239244,0.57,-0.82,9.94,-0.03,-0.01,-0.00,30.91
40976879,1918,1,212962,239695,0.56,-0.83,9.96,-0.03,-0.01,-0.01,31.05
41015195,1938,1,213150,240132,0.58,-0.80,9.95,-0.03,-0.01,-0.00,31.05
41055192,1945,1,213242,240290,0.56,-0.81,9.95,-0.03,-0.01,-0.00,31.05
41095195,1947,1,213247,240450,0.57,-0.80,9.98,-0.03,-0.01,-0.00,31.05
41135192,1968,1,213307,240682,0.56,-0.81,9.97,-0.03,-0.01,-0.00,31.05
41175195,1958,1,213427,240850,0.57,-0.81,9.97,-0.03,-0.01,-0.00,31.05
41215192,1959,1,213409,241133,0.57,-0.82,9.98,-0.03,-0.01,-0.00,31.05
41255195,1959,1,213603,241319,0.57,-0.81,9.96,-0.03,-0.01,-0.00,31.05
41295192,1954,1,213614,241639,0.57,-0.82,9.94,-0.03,-0.01,-0.00,31.05
41335195,1936,1,213655,241883,0.56,-0.80,9.96,-0.03,-0.01,-0.00,31.05
41375192,1939,1,213714,242205,0.57,-0.81,9.94,-0.03,-0.01,-0.00,31.05
41415195,1937,1,213844,242479,0.57,-0.81,9.96,-0.03,-0.01,-0.00,31.05
41455195,1939,1,213947,242433,0.55,-0.80,9.96,-0.03,-0.01,-0.00,31.05
41495195,1947,1,213744,241214,0.57,-0.80,9.96,-0.03,-0.01,-0.01,31.05
41536195,1923,1,213254,239872,0.55,-0.80,9.94,-0.03,-0.01,-0.01,31.05
41576195,1930,1,212915,239268,0.57,-0.80,9.97,-0.03,-0.01,-0.00,31.05
41616192,1933,1,212778,239091,0.58,-0.82,9.96,-0.03,-0.01,-0.00,31.05
41656195,1931,1,212747,239159,0.54,-0.81,9.97,-0.03,-0.01,-0.00,31.05
41696195,1934,1,212768,239529,0.55,-0.81,9.94,-0.03,-0.01,-0.01,31.05
41736195,1927,1,212875,239890,0.55,-0.81,9.95,-0.03,-0.01,-0.01,31.05
41776194,1936,1,212946,240104,0.56,-0.82,9.97,-0.03,-0.01,-0.00,31.05
41816196,1935,1,213026,240262,0.56,-0.81,9.97,-0.03,-0.01,-0.00,31.05
41856195,1936,1,213093,240488,0.55,-0.81,9.97,-0.03,-0.01,-0.00,31.05
41894195,2007,1,213184,240820,0.56,-0.81,9.96,-0.03,-0.01,-0.00,31.05
41934227,2000,1,213335,241144,0.56,-0.80,9.96,-0.03,-0.01,-0.00,31.05
41974195,1995,1,213422,241429,0.56,-0.81,9.96,-0.03,-0.01,-0.00,31.05
42014878,1920,1,213558,241685,0.56,-0.82,9.96,-0.03,-0.01,-0.00,31.13
42055195,1935,1,213696,241937,0.57,-0.82,9.96,-0.03,-0.01,-0.00,31.13
42095192,1939,1,213829,242224,0.56,-0.79,9.96,-0.03,-0.01,-0.00,31.13
42135207,1927,1,213914,242541,0.56,-0.82,9.95,-0.03,-0.01,-0.01,31.13
42175195,1938,1,213998,242738,0.57,-0.83,9.94,-0.03,-0.01,-0.00,31.13
42215195,1940,1,213949,242024,0.56,-0.83,9.97,-0.03,-0.01,-0.00,31.13
42255195,1945,1,213501,240681,0.56,-0.80,9.95,-0.03,-0.01,-0.01,31.13
42295195,1936,1,213109,239896,0.55,-0.83,9.95,-0.03,-0.01,-0.00,31.13
42335195,1931,1,212934,239700,0.57,-0.81,9.96,-0.03,-0.01,-0.00,31.13
42375195,1940,1,212890,239740,0.56,-0.79,9.96,-0.03,-0.01,-0.00,31.13
42415195,1936,1,212904,240076,0.56,-0.82,9.96,-0.03,-0.01,-0.00,31.13
42455195,1937,1,213005,240579,0.56,-0.83,9.97,-0.03,-0.01,-0.00,31.13
42495193,1921,1,213127,240982,0.56,-0.83,9.95,-0.03,-0.01,-0.00,31.13
42535195,1941,1,213166,241235,0.56,-0.82,9.97,-0.03,-0.01,-0.01,31.13
42574195,1984,1,213128,241540,0.60,-0.83,9.97,-0.04,-0.01,-0.01,31.13
42614195,1950,1,213029,241996,0.57,-0.83,9.96,-0.04,-0.00,-0.01,31.13
42654194,2000,1,212997,242604,0.55,-0.82,9.96,-0.03,-0.01,-0.00,31.13
42694195,1979,1,213129,243318,0.56,-0.83,9.96,-0.03,-0.01,-0.00,31.13
42734195,2013,1,213158,243978,0.57,-0.79,9.94,-0.03,-0.01,-0.00,31.13
42774196,1989,1,213071,244113,0.53,-0.84,10.02,-0.05,0.00,-0.01,31.13
42814172,2032,1,213096,243993,0.54,-0.83,9.93,-0.03,-0.00,-0.01,31.13
42854195,2038,1,213052,243741,0.57,-0.81,9.96,-0.03,-0.01,-0.01,31.13
42894195,2080,1,212815,243530,0.54,-0.80,9.96,-0.04,-0.01,-0.01,31.13
42934195,2038,1,212493,242195,0.52,-0.81,9.99,-0.04,-0.00,-0.01,31.13
42974192,2019,1,211854,241032,0.55,-0.81,9.94,-0.04,-0.01,-0.01,31.13
43014195,2064,1,211586,240396,0.56,-0.82,9.96,-0.03,-0.01,-0.01,31.13
43054881,1971,1,211450,240135,0.55,-0.85,9.97,-0.04,-0.01,-0.01,31.15
43095195,1998,1,211451,239903,0.53,-0.79,9.96,-0.03,-0.01,-0.00,31.15
43135196,2018,1,211448,239808,0.57,-0.82,9.97,-0.03,-0.01,-0.01,31.15
43175195,2023,1,211467,239778,0.55,-0.83,9.99,-0.03,-0.02,-0.00,31.15
43215195,2034,1,211533,239685,0.56,-0.81,9.94,-0.03,-0.01,-0.00,31.15
43255195,2022,1,211537,239819,0.57,-0.81,9.96,-0.03,-0.01,-0.00,31.15
43295195,2064,1,211569,239931,0.54,-0.82,9.96,-0.03,-0.01,-0.01,31.15
43335195,2081,1,211646,240126,0.55,-0.82,9.96,-0.03,-0.01,-0.01,31.15
43375195,2031,1,211730,240471,0.57,-0.81,9.96,-0.03,-0.01,-0.00,31.15
43415195,2083,1,211851,240813,0.58,-0.82,9.99,-0.03,-0.01,-0.00,31.15
43455196,2093,1,211894,241401,0.55,-0.83,9.95,-0.04,-0.01,-0.01,31.15
43495195,2055,1,211853,241796,0.54,-0.83,9.98,-0.04,-0.01,-0.01,31.15
43535195,2065,1,211900,242032,0.57,-0.83,9.96,-0.03,-0.01,-0.01,31.15
43574194,2011,1,211831,241591,0.55,-0.82,9.99,-0.04,-0.01,-0.00,31.15
43614195,2039,1,211222,240068,0.55,-0.81,9.97,-0.03,-0.01,-0.01,31.15
43654196,1992,1,210802,239197,0.55,-0.82,9.97,-0.03,-0.01,-0.01,31.15
43694195,1806,1,210430,238663,0.55,-0.85,9.96,-0.04,-0.01,-0.01,31.15
43734195,1927,1,210124,238203,0.55,-0.81,9.98,-0.03,-0.00,-0.01,31.15
43774192,2083,1,209965,238162,0.54,-0.83,9.98,-0.03,-0.01,-0.01,31.15
43814194,2173,1,209859,238295,0.55,-0.82,9.97,-0.03,-0.01,-0.00,31.15
43854195,2018,1,209882,238457,0.56,-0.82,9.96,-0.03,-0.01,-0.00,31.15
43894195,1872,1,209869,238266,0.56,-0.82,9.97,-0.03,-0.01,-0.01,31.15
43934195,1786,1,209825,238146,0.54,-0.82,9.98,-0.03,-0.01,-0.00,31.15
43974195,1725,1,209869,238292,0.56,-0.82,9.95,-0.03,-0.01,-0.00,31.15
44014192,1746,1,209857,238415,0.58,-0.84,9.97,-0.03,-0.01,-0.01,31.15
44054195,1677,1,209838,238755,0.57,-0.82,9.94,-0.03,-0.01,-0.00,31.15
44094878,1742,1,209794,239063,0.53,-0.82,9.96,-0.03,-0.01,-0.01,31.05
44135195,1412,1,209934,239207,0.57,-0.84,9.93,-0.03,-0.01,-0.01,31.05
44175195,1701,1,209997,239408,0.54,-0.83,9.95,-0.03,-0.02,-0.00,31.05
44215195,1734,1,210123,239673,0.56,-0.85,9.95,-0.03,-0.01,-0.01,31.05
44255196,1735,1,210136,239257,0.57,-0.80,9.97,-0.03,-0.01,-0.00,31.05
44295195,1745,1,209816,237896,0.54,-0.82,9.95,-0.03,-0.01,-0.00,31.05
44335195,1669,1,209359,236883,0.55,-0.82,9.98,-0.03,-0.01,-0.00,31.05
44375195,1785,1,209105,236442,0.55,-0.83,9.98,-0.03,-0.01,-0.00,31.05
44415195,1736,1,208957,236393,0.55,-0.80,9.96,-0.03,-0.01,-0.01,31.05
44455196,1751,1,209043,236569,0.54,-0.83,9.96,-0.03,-0.01,-0.00,31.05
44495195,1925,1,209100,236879,0.57,-0.83,9.96,-0.03,-0.01,-0.00,31.05
44535195,2080,1,209217,237297,0.54,-0.84,9.94,-0.03,-0.01,-0.00,31.05
44573195,1974,1,209269,237569,0.56,-0.83,9.96,-0.03,-0.01,-0.00,31.05
44614195,3627,1,209319,237811,0.55,-0.81,9.97,-0.03,-0.01,-0.01,31.05
44654195,2163,1,209331,238101,0.54,-0.85,9.97,-0.03,-0.01,-0.00,31.05
44694195,1927,1,209463,238242,0.57,-0.82,9.91,-0.03,-0.01,-0.00,31.05
44734192,1741,1,209577,238651,0.55,-0.81,9.94,-0.03,-0.01,-0.00,31.05
44774195,1769,1,209712,238998,0.58,-0.83,9.96,-0.03,-0.01,-0.00,31.05
44814192,1719,1,209911,239456,0.56,-0.82,9.98,-0.03,-0.01,-0.01,31.05
44854196,1806,1,210055,239784,0.54,-0.80,9.95,-0.03,-0.01,-0.00,31.05
44894192,1834,1,210139,239964,0.56,-0.84,9.97,-0.03,-0.01,-0.00,31.05
44934196,1844,1,210163,239726,0.56,-0.81,9.95,-0.03,-0.01,-0.00,31.05
44974192,1867,1,209795,238357,0.54,-0.83,9.95,-0.03,-0.01,-0.00,31.05
45014195,1877,1,209412,237123,0.56,-0.82,9.92,-0.03,-0.01,-0.00,31.05
45054192,1862,1,209122,236578,0.57,-0.83,9.96,-0.03,-0.01,-0.00,31.05
45094196,1938,1,209028,236295,0.56,-0.85,9.93,-0.03,-0.01,-0.00,31.05
45134878,1951,1,209037,236000,0.58,-0.82,9.96,-0.03,-0.01,-0.00,30.93
45173194,1984,1,209020,235781,0.57,-0.82,9.96,-0.03,-0.01,-0.00,30.93
45213202,1991,1,208975,235676,0.55,-0.82,9.94,-0.02,0.00,-0.00,30.93
45253175,2121,1,208908,235903,0.57,-0.83,9.95,-0.02,0.01,-0.01,30.93
45293175,2145,1,208939,237709,0.57,-0.81,9.93,-0.04,-0.00,-0.01,30.93
45333195,2112,1,209408,240278,0.57,-0.85,9.97,-0.05,0.00,-0.01,30.93
45373175,2202,1,209701,241120,0.48,-0.79,9.97,-0.04,-0.02,-0.02,30.93
45413217,2285,1,209719,241217,0.54,-0.81,10.00,-0.03,-0.02,-0.00,30.93
45453193,2267,1,209660,241631,0.57,-0.79,9.94,-0.03,-0.02,-0.00,30.93
45493196,2207,1,210009,242490,0.53,-0.81,9.99,-0.04,-0.01,-0.00,30.93
45533195,2175,1,210404,243155,0.53,-0.82,9.97,-0.04,-0.02,-0.01,30.93
45573195,2144,1,210646,243360,0.57,-0.80,9.93,-0.03,-0.02,-0.00,30.93
45613192,2119,1,210745,243197,0.57,-0.80,9.93,-0.03,-0.02,-0.00,30.93
45654195,2099,1,210555,241330,0.55,-0.81,9.94,-0.03,-0.02,-0.00,30.93
45694195,2069,1,209995,240269,0.56,-0.82,9.95,-0.04,-0.02,-0.00,30.93
45734195,2062,1,209841,240061,0.56,-0.84,9.94,-0.03,-0.01,-0.00,30.93
45774195,2001,1,209928,240066,0.59,-0.81,9.96,-0.04,-0.02,-0.01,30.93
45814195,2001,1,210012,240109,0.57,-0.81,9.94,-0.04,-0.02,-0.00,30.93
45854195,1981,1,210125,240393,0.56,-0.83,9.96,-0.03,-0.01,-0.00,30.93
45894195,1973,1,210257,240823,0.56,-0.81,9.94,-0.04,-0.01,-0.00,30.93
45934195,1968,1,210332,241265,0.57,-0.82,9.94,-0.04,-0.01,-0.00,30.93
45974195,1865,1,210390,241646,0.60,-0.83,9.96,-0.04,-0.01,-0.00,30.93
46014192,1971,1,210454,242267,0.57,-0.84,9.96,-0.04,-0.01,-0.01,30.93
46054195,1977,1,210548,242164,0.55,-0.83,9.98,-0.03,-0.02,-0.00,30.93
46094196,1972,1,210613,241738,0.57,-0.83,9.96,-0.03,-0.02,-0.00,30.93
46134882,1920,1,210596,241510,0.58,-0.83,9.96,-0.03,-0.02,-0.00,31.15
46173192,1891,1,210801,241978,0.59,-0.84,9.95,-0.03,-0.02,-0.00,31.15
46213195,1895,1,211130,243107,0.59,-0.81,9.95,-0.04,-0.02,-0.00,31.15
46253195,1901,1,211431,244199,0.56,-0.85,10.04,-0.04,-0.00,-0.00,31.15
46293195,1904,1,211524,243965,0.59,-0.82,9.97,-0.04,-0.01,-0.00,31.15
46333193,1921,1,210869,241852,0.58,-0.85,9.97,-0.03,-0.01,-0.00,31.15
46373196,1916,1,210450,241274,0.60,-0.84,9.95,-0.03,-0.01,-0.01,31.15
46413192,1920,1,210457,241197,0.58,-0.84,9.95,-0.03,-0.01,-0.01,31.15
46453195,1915,1,210504,241167,0.58,-0.84,9.96,-0.03,-0.01,-0.00,31.15
46493192,1917,1,210556,241413,0.59,-0.84,9.98,-0.03,-0.01,-0.00,31.15
46533195,1933,1,210632,241810,0.58,-0.85,9.96,-0.04,-0.01,-0.00,31.15
46573195,1925,1,210742,242091,0.58,-0.84,9.96,-0.04,-0.00,-0.00,31.15
46613195,1936,1,210683,242383,0.58,-0.83,9.95,-0.03,-0.01,-0.00,31.15
46654195,1901,1,210634,242451,0.59,-0.84,9.94,-0.03,-0.01,-0.00,31.15
46694195,1924,1,210767,242527,0.59,-0.84,9.97,-0.03,-0.01,-0.00,31.15
46734195,1937,1,210725,242805,0.56,-0.85,9.94,-0.03,-0.01,-0.00,31.15
46774195,1927,1,210789,243017,0.60,-0.83,9.96,-0.03,-0.01,-0.01,31.15
46814195,1933,1,210725,243417,0.57,-0.83,9.97,-0.03,-0.01,-0.01,31.15
46854225,1949,1,210755,243666,0.56,-0.84,9.96,-0.03,-0.01,-0.00,31.15
46894195,1958,1,210795,243636,0.56,-0.83,9.99,-0.03,-0.01,-0.00,31.15
46934195,1943,1,210853,243777,0.58,-0.82,9.98,-0.03,-0.01,-0.00,31.15
46974196,1943,1,210892,243138,0.56,-0.85,9.94,-0.03,-0.01,-0.00,31.15
47014195,1968,1,210401,241903,0.60,-0.84,9.95,-0.03,-0.01,-0.00,31.15
47054232,1951,1,210140,241468,0.59,-0.84,9.96,-0.03,-0.01,-0.00,31.15
47094195,1950,1,210104,241478,0.60,-0.83,9.96,-0.03,-0.01,-0.00,31.15
47134193,1939,1,210146,241453,0.57,-0.83,9.95,-0.03,-0.01,-0.01,31.15
47174881,1930,1,210203,241696,0.58,-0.82,9.95,-0.04,-0.01,-0.00,31.15
47213193,1969,1,210295,242311,0.56,-0.86,10.02,-0.04,-0.01,-0.00,31.15
47253195,1970,1,210491,242420,0.59,-0.83,9.95,-0.03,-0.01,-0.00,31.15
47293193,1978,1,210600,242536,0.60,-0.81,9.95,-0.03,-0.01,-0.00,31.15
47333195,1959,1,210659,242890,0.59,-0.85,9.96,-0.04,-0.01,-0.01,31.15
47373195,2002,1,210731,243168,0.58,-0.84,9.95,-0.04,-0.01,-0.01,31.15
47413195,1955,1,210780,243346,0.56,-0.83,9.95,-0.03,-0.01,-0.01,31.15
47453195,1941,1,210895,243696,0.55,-0.83,9.95,-0.03,-0.01,-0.00,31.15
47493195,1952,1,210988,244074,0.59,-0.82,9.96,-0.03,-0.01,-0.01,31.15
47533195,1939,1,211082,244510,0.60,-0.84,9.96,-0.04,-0.01,-0.01,31.15
47573195,1941,1,211258,244922,0.58,-0.82,9.97,-0.03,-0.01,-0.01,31.15
47613196,1942,1,211375,244880,0.59,-0.83,9.97,-0.03,-0.01,-0.00,31.15
47653196,1957,1,211388,244831,0.58,-0.85,9.94,-0.03,-0.01,-0.00,31.15
47693195,1919,1,211141,243351,0.58,-0.84,9.95,-0.04,-0.01,-0.00,31.15
47733195,2007,1,210645,242686,0.57,-0.85,10.00,-0.03,-0.00,-0.00,31.15
47773192,1929,1,210369,242689,0.59,-0.83,9.90,-0.03,-0.00,-0.01,31.15
47813194,1879,1,210282,242849,0.57,-0.84,9.97,-0.03,-0.01,-0.00,31.15
47853193,1916,1,210224,243265,0.57,-0.84,9.95,-0.03,-0.01,-0.00,31.15
47893195,1927,1,210425,244293,0.59,-0.84,9.97,-0.03,-0.02,-0.00,31.15
47933193,1950,1,210992,245287,0.57,-0.83,9.96,-0.04,-0.02,-0.00,31.15
47973195,1941,1,211172,245404,0.59,-0.84,9.96,-0.03,-0.02,-0.00,31.15
48013193,1942,1,211198,245496,0.60,-0.84,9.96,-0.03,-0.02,-0.00,31.15
48053196,1934,1,211379,245620,0.59,-0.84,9.97,-0.03,-0.02,-0.00,31.15
48093195,1923,1,211437,245741,0.61,-0.85,9.98,-0.03,-0.02,-0.00,31.15
48133195,1815,1,211592,245901,0.61,-0.85,9.94,-0.03,-0.01,-0.00,31.15
48173195,1744,1,211739,246217,0.60,-0.84,9.97,-0.03,-0.01,-0.00,31.15
48213882,1711,1,211913,246371,0.61,-0.83,9.99,-0.03,-0.01,-0.00,31.41
48252196,1811,1,212011,246580,0.60,-0.83,9.97,-0.03,-0.01,-0.00,31.41
48292196,1866,1,212069,246831,0.58,-0.85,9.95,-0.03,-0.01,-0.01,31.41
48332195,1923,1,212010,246866,0.61,-0.85,9.96,-0.03,-0.01,-0.00,31.41
48372195,1911,1,212087,246701,0.61,-0.82,9.97,-0.03,-0.01,-0.00,31.41
48412195,1935,1,211824,244881,0.61,-0.84,9.94,-0.03,-0.01,-0.00,31.41
48452195,1968,1,211340,244016,0.60,-0.84,9.94,-0.03,-0.01,-0.00,31.41
48492201,2014,1,211293,243903,0.61,-0.84,9.96,-0.03,-0.01,-0.00,31.41
48532195,2032,1,211250,243945,0.60,-0.85,9.95,-0.03,-0.01,-0.00,31.41
48572193,2032,1,211311,243980,0.59,-0.84,9.96,-0.03,-0.01,-0.00,31.41
48612195,2069,1,211413,244237,0.61,-0.84,9.94,-0.03,-0.01,-0.00,31.41
48652192,2061,1,211550,244680,0.59,-0.83,9.96,-0.03,-0.01,-0.01,31.41
48692214,2065,1,211661,244807,0.59,-0.84,9.95,-0.03,-0.01,-0.00,31.41
48732192,2080,1,211737,245038,0.60,-0.84,9.96,-0.03,-0.01,-0.00,31.41
48772196,2058,1,211822,245197,0.61,-0.86,9.95,-0.03,-0.01,-0.01,31.41
48812195,2058,1,211872,245462,0.60,-0.86,9.97,-0.03,-0.01,-0.00,31.41
48852195,2043,1,212045,245666,0.60,-0.85,9.97,-0.03,-0.01,-0.01,31.41
48892210,2054,1,212195,246046,0.61,-0.83,9.97,-0.03,-0.01,-0.00,31.41
48932195,2054,1,212251,246284,0.59,-0.84,9.96,-0.03,-0.01,-0.00,31.41
48972192,1997,1,212409,246613,0.60,-0.85,9.97,-0.03,-0.01,-0.00,31.41
49012196,2003,1,212513,246970,0.62,-0.84,9.97,-0.03,-0.01,-0.00,31.41
49052195,1964,1,212574,247175,0.59,-0.83,9.95,-0.03,-0.01,-0.00,31.41
49092195,1975,1,212659,246584,0.59,-0.84,9.94,-0.03,-0.01,-0.00,31.41
49132195,1936,1,212203,245101,0.62,-0.84,9.97,-0.03,-0.01,-0.00,31.41
49172196,1968,1,211955,244734,0.59,-0.83,9.94,-0.03,-0.01,-0.00,31.41
49212193,1930,1,211954,244743,0.59,-0.83,9.97,-0.03,-0.01,-0.00,31.41
49252882,1914,1,211953,244779,0.60,-0.84,9.96,-0.03,-0.01,-0.00,31.53
49293192,1937,1,211776,245022,0.61,-0.82,9.93,-0.03,-0.01,-0.00,31.53
49333195,1856,1,211896,245243,0.59,-0.83,9.95,-0.03,-0.01,-0.00,31.53
49373195,1872,1,211954,245393,0.59,-0.82,9.95,-0.03,-0.01,-0.00,31.53
49413195,1965,1,212006,245470,0.60,-0.83,9.96,-0.03,-0.01,-0.01,31.53
49453195,1981,1,212003,245564,0.60,-0.84,9.94,-0.03,-0.01,-0.01,31.53
49493195,2008,1,212014,245923,0.59,-0.82,9.93,-0.03,-0.01,-0.00,31.53
49533195,1998,1,212109,246320,0.58,-0.83,9.94,-0.03,-0.01,-0.00,31.53
49573195,2039,1,212332,246613,0.61,-0.83,9.94,-0.03,-0.01,-0.00,31.53
49613195,2047,1,212296,246745,0.59,-0.83,9.96,-0.03,-0.01,-0.00,31.53
49653195,2030,1,212387,246773,0.61,-0.84,9.96,-0.03,-0.01,-0.00,31.53
49693196,2003,1,212476,246926,0.59,-0.84,9.96,-0.03,-0.01,-0.00,31.53
49733195,1989,1,212507,246886,0.59,-0.84,9.98,-0.03,-0.01,-0.00,31.53
49773195,2009,1,212342,245582,0.59,-0.84,9.94,-0.03,-0.01,-0.00,31.53
49813195,2000,1,211929,244881,0.60,-0.84,9.98,-0.03,-0.01,-0.00,31.53
49853193,1982,1,211871,244784,0.60,-0.83,9.99,-0.03,-0.01,-0.00,31.53
49891195,2058,1,211939,244749,0.58,-0.84,9.98,-0.03,-0.01,-0.00,31.53
49931196,2066,1,211969,244784,0.62,-0.84,9.96,-0.03,-0.01,-0.01,31.53
49971195,2029,1,212039,245094,0.58,-0.83,9.93,-0.03,-0.01,-0.00,31.53
50011195,2031,1,212215,245342,0.59,-0.83,9.99,-0.03,-0.01,-0.00,31.53
50051195,2026,1,212276,245342,0.58,-0.82,9.95,-0.03,-0.01,-0.00,31.53
50091195,1993,1,212328,245362,0.62,-0.82,9.97,-0.03,-0.01,-0.00,31.53
50131208,2010,1,212262,245449,0.58,-0.83,9.93,-0.03,-0.01,-0.00,31.53
50171193,2004,1,212383,245592,0.60,-0.85,9.96,-0.03,-0.01,-0.00,31.53
50211196,2007,1,212449,245669,0.60,-0.83,9.96,-0.03,-0.01,-0.00,31.53
50251192,1981,1,212569,245784,0.59,-0.83,9.98,-0.03,-0.01,-0.00,31.53
50291882,1927,1,212594,246065,0.59,-0.84,9.92,-0.03,-0.01,-0.00,31.33
50332200,1904,1,212661,246477,0.63,-0.83,9.95,-0.03,-0.01,-0.00,31.33
50372195,1901,1,212811,246625,0.59,-0.85,9.96,-0.03,-0.01,-0.00,31.33
50412195,1887,1,212742,246884,0.61,-0.84,9.93,-0.03,-0.01,-0.01,31.33
50452195,1966,1,212697,245807,0.60,-0.84,9.97,-0.03,-0.01,-0.01,31.33
50492193,1923,1,212235,244864,0.59,-0.85,9.96,-0.03,-0.01,-0.00,31.33
50532195,1942,1,212078,244623,0.58,-0.85,9.96,-0.03,-0.01,-0.00,31.33
50572196,1936,1,212021,244604,0.61,-0.84,9.93,-0.03,-0.01,-0.00,31.33
50612195,1922,1,212007,244633,0.62,-0.84,9.96,-0.03,-0.01,-0.00,31.33
50652196,1907,1,211966,244791,0.58,-0.84,9.97,-0.03,-0.01,-0.00,31.33
50692195,1935,1,212127,245169,0.60,-0.82,9.97,-0.03,-0.01,-0.00,31.33
50732192,1936,1,212137,245369,0.59,-0.85,9.97,-0.03,-0.01,-0.00,31.33
50772195,1933,1,212248,245541,0.60,-0.85,9.96,-0.03,-0.01,-0.01,31.33
50812195,1931,1,212305,245687,0.60,-0.83,9.95,-0.03,-0.01,-0.01,31.33
50852195,1941,1,212371,245785,0.61,-0.83,9.93,-0.03,-0.01,-0.00,31.33
50892196,1942,1,212414,245826,0.59,-0.82,9.95,-0.03,-0.01,-0.00,31.33
50932196,1925,1,212486,246041,0.61,-0.82,9.97,-0.03,-0.01,-0.01,31.33
50972195,1902,1,212534,246183,0.60,-0.83,9.99,-0.03,-0.01,-0.00,31.33
51012195,1932,1,212595,246511,0.60,-0.83,9.96,-0.03,-0.01,-0.00,31.33
51052192,1934,1,212691,247104,0.60,-0.83,9.95,-0.03,-0.01,-0.00,31.33
51092195,1936,1,212784,247380,0.58,-0.84,9.96,-0.03,-0.01,-0.00,31.33
51132196,1968,1,212835,247054,0.60,-0.82,9.95,-0.03,-0.01,-0.00,31.33
51172195,1936,1,212403,245418,0.60,-0.84,9.98,-0.03,-0.01,-0.00,31.33
51212192,1936,1,212105,244923,0.61,-0.84,9.94,-0.03,-0.01,-0.01,31.33
51252195,1922,1,212020,244729,0.60,-0.84,9.96,-0.03,-0.01,-0.00,31.33
51292879,1933,1,212090,244730,0.58,-0.84,9.97,-0.03,-0.01,-0.00,31.41
51331195,1983,1,212177,244681,0.60,-0.85,9.96,-0.03,-0.01,-0.00,31.41
51371192,1960,1,212250,245017,0.61,-0.86,10.00,-0.03,-0.01,-0.01,31.41
51411195,1970,1,212426,245145,0.58,-0.83,9.93,-0.03,-0.01,-0.00,31.41
51451195,1969,1,212462,245211,0.60,-0.83,9.94,-0.03,-0.01,-0.00,31.41
51491195,1995,1,212415,245392,0.62,-0.83,9.95,-0.04,-0.01,-0.00,31.41
51531193,1998,1,212434,245816,0.57,-0.83,9.94,-0.04,-0.01,-0.01,31.41
51571196,1974,1,212464,246046,0.59,-0.82,9.95,-0.03,-0.01,-0.00,31.41
51611192,1965,1,212459,246258,0.60,-0.83,9.96,-0.03,-0.01,-0.00,31.41
51651195,1955,1,212534,246361,0.59,-0.84,9.95,-0.03,-0.01,-0.00,31.41
51691195,1947,1,212669,246506,0.61,-0.84,9.94,-0.03,-0.01,-0.01,31.41
51731195,1968,1,212745,246477,0.59,-0.85,9.96,-0.03,-0.01,-0.00,31.41
51771193,1965,1,212766,246483,0.60,-0.82,9.93,-0.03,-0.01,-0.01,31.41
51811195,1953,1,212764,246458,0.61,-0.84,9.91,-0.03,-0.01,-0.01,31.41
51851195,1953,1,212670,245511,0.60,-0.83,9.95,-0.03,-0.01,-0.00,31.41
51891196,1891,1,212274,244758,0.60,-0.84,9.95,-0.03,-0.01,-0.01,31.41
51931193,1946,1,212121,244584,0.60,-0.84,9.98,-0.04,-0.01,-0.00,31.41
51971195,1981,1,212080,244606,0.59,-0.84,9.96,-0.03,-0.01,-0.00,31.41
52011192,1967,1,212082,244675,0.62,-0.83,9.98,-0.03,-0.01,-0.00,31.41
52051196,1978,1,212166,244828,0.60,-0.82,9.96,-0.03,-0.01,-0.00,31.41
52091192,1966,1,212383,245132,0.59,-0.85,9.95,-0.03,-0.01,-0.00,31.41
52131195,1969,1,212354,245316,0.58,-0.83,9.94,-0.03,-0.01,-0.00,31.41
52171198,1974,1,212407,245417,0.59,-0.83,9.94,-0.04,-0.01,-0.01,31.41
52211195,1958,1,212483,245634,0.59,-0.83,9.97,-0.03,-0.01,-0.00,31.41
52251192,1963,1,212526,245788,0.59,-0.84,9.97,-0.03,-0.01,-0.00,31.41
52291196,1953,1,212537,245880,0.61,-0.84,9.96,-0.03,-0.01,-0.00,31.41
52331879,1907,1,212605,245971,0.61,-0.83,9.93,-0.03,-0.01,-0.01,31.29
52372195,1906,1,212682,246126,0.60,-0.85,9.96,-0.03,-0.01,-0.00,31.29
52410192,2064,1,212804,246412,0.61,-0.83,9.96,-0.03,-0.01,-0.00,31.29
52450195,2016,1,212810,246500,0.62,-0.85,9.96,-0.03,-0.01,-0.00,31.29
52490193,2002,1,212825,245894,0.59,-0.84,9.97,-0.03,-0.01,-0.01,31.29
52530195,2005,1,212460,244859,0.61,-0.83,9.94,-0.03,-0.01,-0.01,31.29
52570195,2001,1,212180,244314,0.60,-0.83,9.96,-0.03,-0.01,-0.00,31.29
52610195,1965,1,212128,244119,0.59,-0.84,9.94,-0.03,-0.01,-0.00,31.29
52650196,1981,1,212148,243971,0.62,-0.83,9.99,-0.03,-0.01,-0.00,31.29
52690195,2000,1,212164,243930,0.61,-0.82,9.95,-0.03,-0.01,-0.00,31.29
52730192,2000,1,212215,244149,0.61,-0.83,9.95,-0.03,-0.01,-0.00,31.29
52770195,2005,1,212322,244232,0.59,-0.85,9.96,-0.03,-0.01,-0.00,31.29
52810195,1999,1,212381,244374,0.61,-0.83,9.93,-0.03,-0.01,-0.00,31.29
52850195,1982,1,212461,244571,0.61,-0.82,9.93,-0.03,-0.01,-0.00,31.29
52890195,2012,1,212427,244801,0.60,-0.83,9.94,-0.03,-0.01,-0.00,31.29
52930195,2007,1,212587,244999,0.60,-0.84,9.98,-0.03,-0.01,-0.01,31.29
52970195,2003,1,212640,245232,0.61,-0.84,9.96,-0.03,-0.01,-0.00,31.29
53010195,1984,1,212724,245550,0.60,-0.84,9.94,-0.03,-0.01,-0.01,31.29
53050195,2009,1,212819,245806,0.59,-0.82,9.96,-0.03,-0.01,-0.00,31.29
53090195,2009,1,212863,245974,0.59,-0.85,9.93,-0.03,-0.01,-0.00,31.29
53130195,2024,1,212905,246102,0.60,-0.84,9.94,-0.03,-0.01,-0.00,31.29
53170195,1999,1,212994,245653,0.59,-0.83,9.95,-0.03,-0.01,-0.00,31.29
53210195,2027,1,212634,244365,0.60,-0.84,9.97,-0.03,-0.01,-0.00,31.29
53250195,1991,1,212259,243728,0.59,-0.85,9.97,-0.03,-0.01,-0.00,31.29
53290195,2007,1,212052,243432,0.60,-0.83,9.97,-0.03,-0.01,-0.00,31.29
53330195,1995,1,212001,243365,0.59,-0.81,9.98,-0.03,-0.01,-0.01,31.29
53370881,1963,1,212000,243329,0.61,-0.83,9.96,-0.03,-0.01,-0.01,31.27
53411195,1958,1,212062,243683,0.60,-0.84,9.98,-0.03,-0.01,-0.00,31.27
53451192,1966,1,212167,243881,0.60,-0.83,9.97,-0.03,-0.01,-0.00,31.27
53491196,1948,1,212246,244098,0.62,-0.83,9.96,-0.03,-0.01,-0.00,31.27
53531195,1895,1,212306,244248,0.59,-0.83,9.96,-0.03,-0.01,-0.00,31.27
53571195,1961,1,212373,244510,0.62,-0.85,9.93,-0.03,-0.01,-0.00,31.27
53611240,1937,1,212477,244750,0.61,-0.85,9.96,-0.03,-0.01,-0.00,31.27
53651195,1955,1,212579,245091,0.58,-0.84,9.95,-0.03,-0.01,-0.00,31.27
53691195,1947,1,212581,245268,0.59,-0.83,9.96,-0.03,-0.01,-0.00,31.27
53731195,1991,1,212713,245422,0.59,-0.87,9.99,-0.03,-0.01,-0.00,31.27
53771195,1967,1,212735,245474,0.61,-0.82,9.94,-0.03,-0.01,-0.00,31.27
53811213,1968,1,212795,245592,0.59,-0.83,9.93,-0.03,-0.01,-0.00,31.27
53851195,1995,1,212839,245667,0.61,-0.82,9.95,-0.04,-0.01,-0.00,31.27
53891194,2002,1,212709,244830,0.61,-0.82,9.97,-0.03,-0.01,-0.00,31.27
53931194,2010,1,212332,243734,0.58,-0.84,9.94,-0.03,-0.01,-0.00,31.27
53971195,2032,1,212110,243213,0.58,-0.83,9.95,-0.03,-0.01,-0.00,31.27
54011195,2059,1,211984,242922,0.60,-0.83,9.97,-0.03,-0.01,-0.00,31.27
54051195,2027,1,211936,242828,0.60,-0.84,9.97,-0.03,-0.01,-0.00,31.27
54091193,2013,1,211879,242985,0.62,-0.85,9.95,-0.03,-0.01,-0.00,31.27
54131195,1995,1,211982,243309,0.60,-0.84,9.95,-0.03,-0.01,-0.00,31.27
54171193,1985,1,212143,243534,0.60,-0.83,9.98,-0.03,-0.01,-0.01,31.27
54211195,1982,1,212178,243775,0.60,-0.83,9.96,-0.03,-0.01,-0.00,31.27
54251192,1985,1,212240,243924,0.59,-0.82,9.96,-0.03,-0.01,-0.00,31.27
54291195,1962,1,212410,244111,0.60,-0.85,9.93,-0.03,-0.01,-0.01,31.27
54331195,1959,1,212449,244566,0.60,-0.83,9.95,-0.03,-0.01,-0.00,31.27
54371882,1954,1,212629,244820,0.60,-0.85,9.94,-0.03,-0.01,-0.00,31.15
54410192,1974,1,212692,245084,0.59,-0.85,9.99,-0.03,-0.01,-0.00,31.15
54450196,1968,1,212717,245334,0.61,-0.84,9.95,-0.03,-0.01,-0.00,31.15
54490192,1943,1,212794,245562,0.61,-0.82,9.95,-0.03,-0.01,-0.00,31.15
54530195,1963,1,212951,245826,0.60,-0.83,9.96,-0.03,-0.01,-0.01,31.15
54570195,1957,1,213091,246212,0.62,-0.82,9.97,-0.03,-0.01,-0.00,31.15
54610196,1949,1,213133,246128,0.62,-0.82,9.98,-0.03,-0.01,-0.00,31.15
54650193,1936,1,212791,244719,0.60,-0.85,9.95,-0.03,-0.01,-0.00,31.15
54690195,1955,1,212430,243942,0.61,-0.82,9.96,-0.03,-0.01,-0.00,31.15
54730192,1926,1,212333,243827,0.57,-0.83,9.96,-0.03,-0.01,-0.00,31.15
54770195,1899,1,212209,243665,0.61,-0.82,9.94,-0.03,-0.01,-0.01,31.15
54810195,1939,1,212296,243756,0.61,-0.82,9.97,-0.03,-0.01,-0.00,31.15
54850195,1925,1,212359,244108,0.61,-0.85,9.96,-0.03,-0.01,-0.00,31.15
54890193,1941,1,212514,244289,0.60,-0.84,9.94,-0.03,-0.01,-0.01,31.15
54930194,1929,1,212514,244418,0.62,-0.83,9.95,-0.03,-0.01,-0.00,31.15
54970194,1945,1,212529,244564,0.60,-0.84,9.94,-0.03,-0.01,-0.00,31.15
55010195,1936,1,212544,244727,0.58,-0.84,9.98,-0.03,-0.01,-0.00,31.15
55050192,1935,1,212545,244762,0.60,-0.85,9.96,-0.03,-0.01,-0.01,31.15
55090195,1910,1,212701,245115,0.60,-0.83,9.95,-0.03,-0.01,-0.00,31.15
55130192,1936,1,212722,245261,0.60,-0.84,9.95,-0.03,-0.01,-0.00,31.15
55170196,1943,1,212783,245401,0.61,-0.83,9.96,-0.03,-0.01,-0.00,31.15
55210192,1917,1,212869,245457,0.62,-0.83,9.93,-0.03,-0.01,-0.00,31.15
55250201,1930,1,212967,245640,0.61,-0.83,9.95,-0.03,-0.01,-0.00,31.15
55290192,1928,1,212874,245718,0.60,-0.84,9.95,-0.03,-0.01,-0.00,31.15
55330195,1923,1,212876,245113,0.61,-0.86,9.94,-0.03,-0.01,-0.00,31.15
55370192,1914,1,212641,244054,0.60,-0.85,9.97,-0.03,-0.01,-0.01,31.15
55410882,1946,1,212353,243609,0.61,-0.83,9.93,-0.03,-0.01,-0.00,31.29
55451229,1872,1,212233,243380,0.60,-0.82,9.95,-0.03,-0.01,-0.00,31.29
55491196,1868,1,212180,243287,0.62,-0.83,9.94,-0.03,-0.01,-0.00,31.29
55531195,1867,1,212217,243517,0.60,-0.82,9.97,-0.03,-0.01,-0.00,31.29
55571195,1863,1,212335,243813,0.60,-0.83,9.97,-0.04,-0.01,-0.01,31.29
55611195,1897,1,212408,243868,0.62,-0.82,9.97,-0.03,-0.01,-0.00,31.29
55649195,1973,1,212474,243924,0.61,-0.83,9.99,-0.03,-0.01,-0.00,31.29
55689195,1967,1,212641,244167,0.61,-0.81,9.96,-0.03,-0.01,-0.00,31.29
55729195,2000,1,212667,244422,0.61,-0.84,9.97,-0.03,-0.01,-0.00,31.29
55769195,1975,1,212785,244692,0.62,-0.83,9.94,-0.03,-0.01,-0.00,31.29
55809194,2014,1,212846,244881,0.61,-0.84,9.97,-0.03,-0.01,-0.00,31.29
55849193,2033,1,212981,245122,0.60,-0.83,9.96,-0.03,-0.01,-0.00,31.29
55889195,2016,1,212983,245314,0.61,-0.83,9.93,-0.03,-0.01,-0.00,31.29
55929193,2029,1,213096,245564,0.62,-0.84,9.95,-0.03,-0.01,-0.00,31.29
55969195,2037,1,213153,245694,0.59,-0.84,9.95,-0.03,-0.01,-0.00,31.29
56009192,2054,1,213324,245777,0.61,-0.82,9.96,-0.04,-0.01,-0.00,31.29
56049195,2037,1,213217,244814,0.61,-0.83,9.96,-0.03,-0.01,-0.00,31.29
56089195,2036,1,212767,243815,0.60,-0.84,9.96,-0.03,-0.01,-0.01,31.29
56129194,2038,1,212545,243334,0.59,-0.83,9.97,-0.03,-0.01,-0.00,31.29
56169192,2056,1,212455,243117,0.60,-0.84,9.96,-0.03,-0.01,-0.00,31.29
56209195,2027,1,212403,243153,0.60,-0.82,9.95,-0.03,-0.01,-0.00,31.29
56249192,2036,1,212442,243223,0.61,-0.84,9.97,-0.03,-0.01,-0.00,31.29
56289195,2081,1,212522,243582,0.61,-0.84,9.96,-0.03,-0.01,-0.00,31.29
56329195,2032,1,212594,243852,0.60,-0.83,9.96,-0.03,-0.01,-0.00,31.29
56369195,2028,1,212675,243986,0.58,-0.84,9.94,-0.03,-0.01,-0.00,31.29
56409195,2015,1,212761,244238,0.62,-0.82,9.96,-0.03,-0.01,-0.01,31.29
56449881,1938,1,212818,244534,0.62,-0.83,9.97,-0.03,-0.01,-0.00,31.33
56490195,2003,1,212904,244776,0.60,-0.85,9.96,-0.03,-0.01,-0.00,31.33
56530195,1969,1,213038,245022,0.62,-0.85,9.96,-0.03,-0.01,-0.00,31.33
56570195,1971,1,213113,245340,0.60,-0.85,9.91,-0.03,-0.01,-0.00,31.33
56610195,1996,1,213203,245675,0.60,-0.84,9.95,-0.04,-0.01,-0.00,31.33
56650192,1956,1,213290,246010,0.62,-0.82,9.97,-0.03,-0.01,-0.00,31.33
56689195,2008,1,213287,246273,0.60,-0.85,9.98,-0.03,-0.01,-0.00,31.33
56729192,1968,1,213378,246434,0.61,-0.83,9.96,-0.03,-0.01,-0.00,31.33
56769195,1961,1,213440,246195,0.61,-0.84,9.96,-0.03,-0.01,-0.01,31.33
56809195,1971,1,213085,244755,0.61,-0.85,9.96,-0.03,-0.01,-0.00,31.33
56849195,1925,1,212817,244036,0.62,-0.82,9.93,-0.04,-0.01,-0.00,31.33
56889208,1983,1,212681,243638,0.61,-0.83,9.96,-0.03,-0.01,-0.00,31.33
56929195,2033,1,212771,243564,0.62,-0.83,9.96,-0.03,-0.01,-0.00,31.33
56969195,2064,1,212749,243545,0.62,-0.84,9.93,-0.03,-0.01,-0.00,31.33
57009196,2073,1,212783,243817,0.59,-0.83,9.95,-0.03,-0.01,-0.00,31.33
57049195,2047,1,212862,244107,0.60,-0.85,9.98,-0.03,-0.01,-0.00,31.33
57089214,2068,1,212879,244171,0.61,-0.83,9.96,-0.03,-0.01,-0.00,31.33
57129195,2028,1,213020,244238,0.61,-0.83,9.95,-0.03,-0.01,-0.01,31.33
57169195,2046,1,213072,244475,0.62,-0.82,9.93,-0.03,-0.01,-0.00,31.33
57209195,2019,1,213160,244711,0.60,-0.82,9.97,-0.03,-0.01,-0.00,31.33
57249195,1985,1,213180,244859,0.62,-0.86,9.93,-0.03,-0.01,-0.00,31.33
57289216,1985,1,213336,245051,0.62,-0.84,9.95,-0.03,-0.01,-0.00,31.33
57329195,1943,1,213338,245246,0.61,-0.84,9.99,-0.03,-0.01,-0.01,31.33
57369194,1959,1,213384,245472,0.62,-0.85,9.94,-0.03,-0.01,-0.00,31.33
57409196,1968,1,213333,245530,0.61,-0.83,9.98,-0.03,-0.01,-0.00,31.33
57449882,1920,1,213511,245627,0.61,-0.84,9.94,-0.03,-0.01,-0.01,31.33
57490196,1929,1,213524,245774,0.61,-0.85,9.93,-0.03,-0.01,-0.01,31.33
57530195,1930,1,213580,245925,0.60,-0.83,9.96,-0.03,-0.01,-0.00,31.33
57570195,1931,1,213501,245078,0.63,-0.83,9.96,-0.03,-0.01,-0.01,31.33
57610194,1949,1,213272,244227,0.60,-0.84,9.96,-0.03,-0.01,-0.00,31.33
57650195,1917,1,212940,243546,0.61,-0.83,9.96,-0.03,-0.01,-0.00,31.33
57690196,1917,1,212789,243357,0.62,-0.83,9.96,-0.03,-0.01,-0.00,31.33
57729196,1946,1,212653,243178,0.62,-0.82,9.96,-0.03,-0.01,-0.00,31.33
57769193,1972,1,212697,243374,0.61,-0.84,9.95,-0.03,-0.01,-0.00,31.33
57809196,2003,1,212693,243483,0.62,-0.84,9.94,-0.03,-0.01,-0.00,31.33
57849195,1939,1,212777,243582,0.63,-0.83,9.95,-0.03,-0.01,-0.00,31.33
57889195,1913,1,212743,243614,0.61,-0.82,9.95,-0.03,-0.01,-0.00,31.33
57929193,1898,1,212808,243792,0.59,-0.85,9.95,-0.03,-0.01,-0.00,31.33
57969196,1886,1,212765,243813,0.62,-0.82,9.96,-0.03,-0.01,-0.01,31.33
58009195,1919,1,212827,243891,0.63,-0.85,9.96,-0.03,-0.01,-0.00,31.33
58049196,1904,1,212855,243967,0.61,-0.84,9.92,-0.03,-0.01,-0.00,31.33
58089195,1925,1,212803,243983,0.60,-0.85,9.97,-0.03,-0.01,-0.00,31.33
58129196,1941,1,212818,244080,0.60,-0.83,9.93,-0.03,-0.01,-0.00,31.33
58169192,1950,1,212895,244166,0.61,-0.84,9.95,-0.03,-0.01,-0.00,31.33
58209195,1957,1,212968,244160,0.60,-0.84,9.96,-0.03,-0.01,-0.00,31.33
58249192,1959,1,212990,244134,0.62,-0.85,9.96,-0.03,-0.01,-0.00,31.33
58289195,1981,1,212997,244071,0.61,-0.83,9.95,-0.03,-0.01,-0.00,31.33
58329192,1954,1,212931,243801,0.61,-0.84,9.97,-0.03,-0.01,-0.00,31.33
58369195,1980,1,212793,243468,0.62,-0.84,9.97,-0.03,-0.01,-0.00,31.33
58409193,1983,1,212639,243151,0.63,-0.84,9.95,-0.03,-0.01,-0.00,31.33
58449195,1991,1,212613,242988,0.59,-0.84,9.95,-0.03,-0.01,-0.00,31.33
58489879,1933,1,212524,242806,0.61,-0.84,9.94,-0.03,-0.01,-0.00,31.25
58530195,1968,1,212569,242850,0.62,-0.83,9.96,-0.03,-0.01,-0.01,31.25
58568195,2086,1,212579,242938,0.62,-0.84,9.96,-0.03,-0.01,-0.00,31.25
58608195,2079,1,212572,242936,0.61,-0.84,9.96,-0.03,-0.01,-0.00,31.25
58648195,2032,1,212607,242987,0.62,-0.82,9.96,-0.03,-0.01,-0.01,31.25
58688195,2032,1,212674,242885,0.61,-0.80,9.96,-0.03,-0.01,-0.00,31.25
58729192,1967,1,212722,242960,0.62,-0.84,9.95,-0.03,-0.01,-0.00,31.25
58769195,1967,1,212689,243001,0.60,-0.84,9.94,-0.03,-0.01,-0.00,31.25
58809192,1967,1,212733,242971,0.60,-0.81,9.95,-0.03,-0.01,-0.00,31.25
58849195,1953,1,212695,242987,0.60,-0.85,9.96,-0.03,-0.01,-0.01,31.25
58889192,1970,1,212738,243079,0.62,-0.83,9.97,-0.03,-0.01,-0.00,31.25
58929195,1924,1,212705,243154,0.63,-0.84,9.96,-0.03,-0.01,-0.01,31.25
58969195,1969,1,212690,243132,0.62,-0.84,9.96,-0.03,-0.01,-0.00,31.25
59009195,1966,1,212669,243178,0.61,-0.84,9.96,-0.03,-0.01,-0.00,31.25
59049193,1949,1,212693,243171,0.61,-0.84,9.95,-0.03,-0.01,-0.00,31.25
59089195,1951,1,212821,243171,0.64,-0.83,9.95,-0.03,-0.01,-0.01,31.25
59129195,1887,1,212764,243152,0.62,-0.84,9.97,-0.03,-0.01,-0.00,31.25
59169195,1821,1,212778,243308,0.63,-0.84,9.95,-0.03,-0.01,-0.00,31.25
59209195,1789,1,212760,243426,0.62,-0.84,9.92,-0.03,-0.01,-0.00,31.25
59249195,1776,1,212730,243557,0.61,-0.83,9.96,-0.03,-0.01,-0.00,31.25
59289195,1814,1,212734,243648,0.62,-0.85,9.97,-0.03,-0.01,-0.00,31.25
59329195,1811,1,212744,243818,0.62,-0.82,9.96,-0.03,-0.01,-0.00,31.25
59369195,1852,1,212734,243927,0.61,-0.84,9.97,-0.03,-0.01,-0.00,31.25
59409195,1869,1,212810,244097,0.60,-0.85,9.94,-0.03,-0.01,-0.00,31.25
59449192,1935,1,212876,244180,0.63,-0.83,9.94,-0.03,-0.01,-0.00,31.25
59489195,1872,1,212879,244259,0.61,-0.83,9.97,-0.03,-0.01,-0.00,31.25
59529882,1835,1,212905,244350,0.61,-0.85,9.94,-0.03,-0.01,-0.01,31.19
59568196,1910,1,212759,244392,0.61,-0.85,9.94,-0.03,-0.01,-0.00,31.19
59608196,1680,1,212768,244467,0.60,-0.83,9.97,-0.03,-0.01,-0.00,31.19
59648195,1535,1,212475,244547,0.61,-0.86,9.93,-0.03,-0.01,-0.00,31.19
59688195,1418,1,212414,244598,0.62,-0.82,9.92,-0.03,-0.01,-0.00,31.19
59728195,1456,1,212400,244589,0.62,-0.85,9.96,-0.03,-0.01,-0.00,31.19
59769193,1450,1,212453,244686,0.59,-0.83,9.97,-0.03,-0.01,-0.00,31.19
59809194,1732,1,213145,244747,0.60,-0.85,9.94,-0.03,-0.01,-0.00,31.19
59849193,2183,1,213153,244846,0.60,-0.85,9.96,-0.03,-0.01,-0.00,31.19
59889195,2389,1,213187,244985,0.61,-0.83,9.95,-0.03,-0.01,-0.00,31.19
59929196,2421,1,213264,245063,0.60,-0.85,9.94,-0.03,-0.01,-0.00,31.19
59969195,2511,1,213301,245065,0.62,-0.85,9.96,-0.03,-0.01,-0.01,31.19
60009195,2481,1,213318,245154,0.60,-0.83,9.97,-0.03,-0.01,-0.00,31.19
60049195,2416,1,213336,245258,0.60,-0.86,9.95,-0.03,-0.01,-0.00,31.19
60089192,2369,1,213231,245275,0.60,-0.83,9.95,-0.03,-0.01,-0.00,31.19
60129195,2160,1,213272,245441,0.61,-0.84,9.99,-0.03,-0.01,-0.00,31.19
60169195,2115,1,213169,245616,0.60,-0.83,9.97,-0.03,-0.01,-0.00,31.19
60209195,1942,1,213440,245839,0.62,-0.85,9.99,-0.03,-0.01,-0.00,31.19
60249196,2071,1,213518,246103,0.63,-0.83,9.97,-0.03,-0.01,-0.00,31.19
60289195,2101,1,213522,246377,0.61,-0.83,9.96,-0.03,-0.01,-0.01,31.19
60329195,2133,1,213605,246527,0.62,-0.85,9.94,-0.03,-0.01,-0.01,31.19
60369249,2118,1,213543,246596,0.60,-0.85,9.95,-0.03,-0.01,-0.00,31.19
60409193,2160,1,213574,246579,0.61,-0.85,9.94,-0.04,-0.01,-0.00,31.19
60449195,1998,1,213650,246530,0.62,-0.84,9.95,-0.03,-0.01,-0.00,31.19
60489195,2043,1,213565,246777,0.61,-0.84,9.93,-0.03,-0.01,-0.00,31.19
60529882,2025,1,213664,247311,0.62,-0.86,9.96,-0.03,-0.01,-0.01,31.21
60568217,1994,1,213723,247876,0.60,-0.84,9.98,-0.03,-0.01,-0.00,31.21
60608196,1951,1,213778,247908,0.61,-0.85,9.98,-0.03,-0.01,-0.00,31.21
60648196,1905,1,213725,247868,0.63,-0.83,9.97,-0.03,-0.01,-0.00,31.21
60688195,1887,1,213857,248339,0.62,-0.83,9.96,-0.03,-0.01,-0.00,31.21
60728196,1843,1,214313,249319,0.62,-0.85,9.95,-0.03,-0.02,-0.00,31.21
60768195,1835,1,215070,250304,0.64,-0.85,9.93,-0.04,-0.02,-0.00,31.21
60808193,2119,1,215213,250614,0.62,-0.83,9.96,-0.04,-0.01,-0.00,31.21
60848195,2289,1,215243,250654,0.62,-0.84,9.98,-0.03,-0.01,-0.01,31.21
60888195,2431,1,215169,250510,0.63,-0.85,9.95,-0.03,-0.01,-0.00,31.21
60928195,2454,1,215107,250261,0.63,-0.84,9.98,-0.03,-0.01,-0.00,31.21
60968192,2464,1,215053,250005,0.60,-0.85,9.96,-0.03,-0.01,-0.00,31.21
61008195,2372,1,215014,249985,0.63,-0.85,9.97,-0.03,-0.01,-0.01,31.21
61048195,2343,1,214993,250010,0.64,-0.84,9.97,-0.03,-0.01,-0.00,31.21
61088196,2305,1,214994,249775,0.66,-0.81,9.89,-0.03,-0.01,-0.00,31.21
61128193,2181,1,214895,249522,0.61,-0.83,9.97,-0.03,-0.01,-0.00,31.21
61168196,2064,1,214849,249575,0.62,-0.84,9.95,-0.03,-0.02,-0.00,31.21
61208192,1939,1,214834,249772,0.63,-0.85,9.93,-0.04,-0.01,-0.00,31.21
61248195,1861,1,214878,249856,0.60,-0.84,9.96,-0.03,-0.01,-0.00,31.21
61288192,1859,1,214961,249884,0.61,-0.83,9.95,-0.03,-0.01,-0.00,31.21
61328195,1854,1,214948,249869,0.60,-0.84,9.97,-0.03,-0.01,-0.00,31.21
61368192,1810,1,214884,249762,0.62,-0.86,9.96,-0.03,-0.01,-0.00,31.21
61408195,1838,1,214923,249793,0.62,-0.85,9.96,-0.03,-0.01,-0.00,31.21
61448192,1842,1,214910,249875,0.62,-0.84,9.97,-0.03,-0.01,-0.00,31.21
61488195,1853,1,214935,249911,0.62,-0.85,9.94,-0.03,-0.01,-0.00,31.21
61528195,1855,1,214857,249595,0.62,-0.84,9.95,-0.03,-0.01,-0.00,31.21
61568882,1819,1,214804,249481,0.62,-0.84,9.93,-0.03,-0.01,-0.01,31.05
61607195,1924,1,214761,249405,0.63,-0.84,9.94,-0.04,-0.01,-0.00,31.05
61647195,1901,1,214698,249448,0.64,-0.85,9.95,-0.03,-0.01,-0.00,31.05
61687195,1935,1,214735,249662,0.61,-0.86,9.97,-0.03,-0.01,-0.00,31.05
