timestamp_us,ecg,leads,ir,red,accX,accY,accZ,gyroX,gyroY,gyroZ,temp
1918492,1023,1,200646,241237,0.00,0.00,0.00,0.00,0.00,0.00,0.00
1948964,535,1,200644,241181,1.21,-0.76,9.63,-0.03,-0.01,-0.00,35.19
1989204,343,1,200548,241056,1.25,-0.76,9.90,-0.03,-0.01,-0.00,35.19
2029193,294,1,200416,241008,1.25,-0.75,9.91,-0.03,-0.01,-0.00,35.19
2069197,400,1,200330,240965,1.25,-0.74,9.89,-0.03,-0.01,-0.00,35.19
2109198,573,1,200212,240549,1.24,-0.76,9.90,-0.03,-0.01,-0.00,35.19
2149197,757,1,199770,238927,1.25,-0.76,9.93,-0.03,-0.01,-0.00,35.19
2189194,958,1,199232,237894,1.25,-0.75,9.89,-0.03,-0.01,-0.00,35.19
2229197,1155,1,199037,237537,1.24,-0.74,9.92,-0.03,-0.01,-0.00,35.19
2269194,1351,1,198954,237591,1.26,-0.79,9.91,-0.03,-0.01,-0.00,35.19
2309197,1484,1,199048,237983,1.24,-0.77,9.92,-0.04,-0.01,-0.00,35.19
2349194,1634,1,199315,238745,1.25,-0.74,9.90,-0.03,-0.01,-0.00,35.19
2389197,1815,1,199655,239256,1.22,-0.75,9.93,-0.03,-0.01,-0.00,35.19
2429194,1915,1,199824,239321,1.22,-0.75,9.93,-0.04,-0.01,-0.01,35.19
2469197,2033,1,199782,239213,1.25,-0.75,9.92,-0.03,-0.01,-0.00,35.19
2509194,2100,1,199770,239215,1.25,-0.75,9.92,-0.03,-0.01,-0.00,35.19
2549197,2174,1,199755,239160,1.24,-0.76,9.91,-0.03,-0.01,-0.00,35.19
2589194,2218,1,199728,239239,1.23,-0.75,9.90,-0.03,-0.01,-0.00,35.19
2629197,2235,1,199711,239271,1.25,-0.74,9.92,-0.03,-0.01,-0.00,35.19
2669194,2269,1,199582,239182,1.25,-0.75,9.90,-0.03,-0.01,-0.00,35.19
2709197,2283,1,199552,239239,1.24,-0.73,9.90,-0.03,-0.01,-0.00,35.19
2748193,2325,1,199483,239296,1.24,-0.76,9.89,-0.03,-0.01,-0.00,35.19
2788197,2301,1,199440,238888,1.23,-0.76,9.91,-0.03,-0.01,-0.00,35.19
2828194,2289,1,199031,237614,1.25,-0.74,9.90,-0.03,-0.01,-0.00,35.19
2868197,2289,1,198716,236994,1.25,-0.75,9.92,-0.03,-0.01,-0.00,35.19
2908194,2282,1,198623,236926,1.27,-0.77,9.92,-0.03,-0.01,-0.00,35.19
2948197,2224,1,198699,237142,1.25,-0.76,9.92,-0.04,-0.01,-0.00,35.19
2988881,2146,1,198673,237396,1.23,-0.76,9.89,-0.03,-0.01,-0.00,34.97
3029203,2160,1,198704,237642,1.24,-0.75,9.92,-0.03,-0.01,-0.00,34.97
3069194,2140,1,198734,237676,1.24,-0.75,9.91,-0.03,-0.01,-0.00,34.97
3109197,2113,1,198710,237604,1.22,-0.74,9.91,-0.03,-0.01,-0.00,34.97
3149198,2192,1,198693,237619,1.23,-0.75,9.92,-0.03,-0.01,-0.00,34.97
3189197,2081,1,198772,237835,1.23,-0.76,9.91,-0.03,-0.01,-0.00,34.97
3229194,2075,1,198812,237970,1.23,-0.77,9.92,-0.03,-0.01,-0.01,34.97
3269197,2067,1,198805,238030,1.23,-0.75,9.90,-0.03,-0.01,-0.00,34.97
3309194,2055,1,198810,238076,1.23,-0.75,9.89,-0.03,-0.01,-0.00,34.97
3349197,2001,1,198804,238120,1.23,-0.76,9.88,-0.03,-0.01,-0.00,34.97
3389194,1977,1,198765,238221,1.24,-0.74,9.93,-0.03,-0.01,-0.00,34.97
3429197,1980,1,198842,238368,1.24,-0.76,9.89,-0.03,-0.01,-0.00,34.97
3469194,1956,1,198861,237918,1.24,-0.74,9.89,-0.03,-0.01,-0.00,34.97
3509197,1987,1,198595,236934,1.24,-0.76,9.91,-0.03,-0.01,-0.00,34.97
3549227,1938,1,198491,236602,1.24,-0.77,9.91,-0.04,-0.01,-0.00,34.97
3587197,2012,1,198515,236644,1.25,-0.75,9.91,-0.03,-0.01,-0.01,34.97
3627197,1986,1,198567,236828,1.24,-0.74,9.91,-0.03,-0.01,-0.00,34.97
3667197,1950,1,198665,237012,1.21,-0.75,9.90,-0.03,-0.01,-0.00,34.97
3707194,1982,1,198689,237022,1.22,-0.76,9.91,-0.03,-0.01,-0.01,34.97
3747224,1963,1,198625,236941,1.23,-0.74,9.90,-0.03,-0.01,-0.00,34.97
3787194,1947,1,198599,236861,1.23,-0.75,9.92,-0.03,-0.01,-0.00,34.97
3827197,1962,1,198634,236810,1.23,-0.76,9.92,-0.03,-0.01,-0.00,34.97
3867194,1915,1,198663,236903,1.25,-0.77,9.89,-0.03,-0.01,-0.00,34.97
3907197,1949,1,198671,237060,1.23,-0.76,9.91,-0.03,-0.01,-0.00,34.97
3947194,1933,1,198593,237095,1.23,-0.77,9.89,-0.03,-0.01,-0.00,34.97
3987197,1939,1,198642,237128,1.24,-0.74,9.90,-0.03,-0.01,-0.00,34.97
4027889,1841,1,198628,237349,1.23,-0.74,9.91,-0.03,-0.01,-0.00,34.75
4068197,1872,1,198773,237528,1.25,-0.77,9.91,-0.03,-0.01,-0.01,34.75
4108197,1854,1,198887,237655,1.24,-0.76,9.91,-0.03,-0.01,-0.00,34.75
4148197,1910,1,198730,236842,1.23,-0.76,9.89,-0.03,-0.01,-0.00,34.75
4188194,1884,1,198402,235974,1.25,-0.74,9.91,-0.04,-0.01,-0.00,34.75
4228197,1858,1,198171,235714,1.24,-0.74,9.92,-0.03,-0.01,-0.00,34.75
4268194,1879,1,198221,235818,1.24,-0.75,9.92,-0.03,-0.01,-0.00,34.75
4308197,1842,1,198277,235976,1.23,-0.76,9.90,-0.03,-0.01,-0.00,34.75
4348194,1919,1,198339,236304,1.24,-0.74,9.89,-0.03,-0.01,-0.00,34.75
4388197,1879,1,198449,236516,1.23,-0.77,9.90,-0.03,-0.01,-0.01,34.75
4428194,1857,1,198454,236572,1.23,-0.76,9.91,-0.03,-0.01,-0.00,34.75
4468197,1904,1,198458,236576,1.23,-0.75,9.93,-0.03,-0.01,-0.00,34.75
4508194,1831,1,198409,236714,1.24,-0.76,9.90,-0.03,-0.01,-0.00,34.75
4548197,1909,1,198444,236947,1.23,-0.78,9.96,-0.03,-0.01,-0.00,34.75
4588194,1859,1,198581,237181,1.22,-0.76,9.91,-0.03,-0.01,-0.00,34.75
4628197,1915,1,198625,237312,1.24,-0.75,9.88,-0.03,-0.01,-0.00,34.75
4668194,1910,1,198631,237450,1.23,-0.74,9.92,-0.03,-0.01,-0.00,34.75
4708197,1927,1,198693,237639,1.24,-0.76,9.90,-0.03,-0.01,-0.01,34.75
4748194,1906,1,198687,237746,1.24,-0.76,9.92,-0.03,-0.01,-0.00,34.75
4788197,1903,1,198719,237511,1.24,-0.75,9.91,-0.03,-0.01,-0.00,34.75
4828194,1905,1,198407,236323,1.25,-0.77,9.90,-0.03,-0.01,-0.00,34.75
4868197,1904,1,198035,235705,1.25,-0.75,9.94,-0.03,-0.01,-0.00,34.75
4908194,1900,1,197947,235587,1.24,-0.74,9.93,-0.03,-0.01,-0.00,34.75
4948197,1936,1,197974,235663,1.24,-0.77,9.94,-0.03,-0.01,-0.00,34.75
4988194,1895,1,198013,235808,1.24,-0.77,9.90,-0.03,-0.01,-0.00,34.75
5028884,1878,1,198058,235956,1.24,-0.74,9.90,-0.03,-0.01,-0.00,34.63
5067194,1941,1,198082,235980,1.21,-0.76,9.90,-0.03,-0.01,-0.00,34.63
5107197,1966,1,198072,235898,1.23,-0.76,9.91,-0.03,-0.01,-0.00,34.63
5147194,1934,1,198056,235901,1.24,-0.77,9.92,-0.03,-0.01,-0.00,34.63
5187210,1933,1,198093,235988,1.25,-0.77,9.90,-0.03,-0.01,-0.00,34.63
5227194,1946,1,198155,236122,1.23,-0.76,9.92,-0.03,-0.01,-0.00,34.63
5267197,1941,1,198218,236222,1.24,-0.75,9.92,-0.03,-0.01,-0.00,34.63
5307194,1966,1,198221,236253,1.23,-0.75,9.90,-0.03,-0.01,-0.00,34.63
5347197,1951,1,198202,236341,1.24,-0.76,9.90,-0.03,-0.01,-0.00,34.63
5387245,1916,1,198189,236406,1.22,-0.76,9.93,-0.03,-0.01,-0.00,34.63
5427197,1918,1,198198,236452,1.23,-0.75,9.93,-0.03,-0.01,-0.00,34.63
5467194,1937,1,198222,236232,1.22,-0.76,9.88,-0.03,-0.01,-0.00,34.63
5507197,1917,1,197897,234998,1.25,-0.76,9.90,-0.03,-0.01,-0.00,34.63
5547193,1904,1,197483,234060,1.24,-0.76,9.91,-0.03,-0.01,-0.00,34.63
5587221,1920,1,197300,233926,1.22,-0.74,9.91,-0.03,-0.01,-0.00,34.63
5627194,1917,1,197327,233879,1.21,-0.76,9.89,-0.03,-0.01,-0.00,34.63
5667197,1936,1,197329,233928,1.23,-0.74,9.91,-0.03,-0.01,-0.00,34.63
5707194,1911,1,197332,234173,1.21,-0.75,9.93,-0.03,-0.01,-0.00,34.63
5747197,1922,1,197361,234164,1.26,-0.79,9.91,-0.03,-0.01,-0.00,34.63
5787194,1914,1,197288,234034,1.21,-0.74,9.92,-0.03,-0.01,-0.00,34.63
5828197,1876,1,197141,234100,1.25,-0.75,9.91,-0.03,-0.01,-0.00,34.63
5868194,1910,1,197176,234276,1.25,-0.76,9.90,-0.03,-0.01,-0.00,34.63
5908197,1899,1,197287,234488,1.25,-0.75,9.90,-0.03,-0.01,-0.01,34.63
5948194,1886,1,197320,234613,1.24,-0.76,9.88,-0.03,-0.01,-0.00,34.63
5988197,1906,1,197409,234771,1.21,-0.75,9.92,-0.03,-0.01,-0.00,34.63
6028881,1878,1,197525,234860,1.23,-0.75,9.90,-0.03,-0.01,-0.00,34.43
6067197,1921,1,197501,234932,1.23,-0.74,9.91,-0.03,-0.01,-0.00,34.43
6107195,1921,1,197516,235053,1.23,-0.76,9.90,-0.03,-0.01,-0.00,34.43
6147197,1906,1,197561,235182,1.23,-0.74,9.94,-0.03,-0.01,-0.00,34.43
6187194,1869,1,197570,234800,1.24,-0.76,9.90,-0.03,-0.01,-0.00,34.43
6227197,1915,1,197246,233471,1.24,-0.75,9.90,-0.03,-0.01,-0.00,34.43
6267194,1920,1,196883,232747,1.21,-0.75,9.90,-0.03,-0.01,-0.00,34.43
6307197,1911,1,196735,232664,1.24,-0.76,9.90,-0.03,-0.01,-0.00,34.43
6347194,1913,1,196786,232697,1.22,-0.75,9.90,-0.03,-0.01,-0.00,34.43
6387197,1929,1,196809,232859,1.22,-0.76,9.90,-0.03,-0.01,-0.00,34.43
6427194,1922,1,196900,233115,1.24,-0.75,9.89,-0.03,-0.01,-0.00,34.43
6467197,1907,1,197032,233235,1.21,-0.73,9.90,-0.03,-0.01,-0.00,34.43
6507194,1904,1,197063,233297,1.23,-0.75,9.93,-0.03,-0.01,-0.00,34.43
6547197,1921,1,197152,233446,1.24,-0.75,9.93,-0.04,-0.01,-0.00,34.43
6587194,1914,1,197220,233626,1.25,-0.74,9.91,-0.03,-0.01,-0.00,34.43
6627197,1895,1,197293,233949,1.24,-0.75,9.91,-0.03,-0.01,-0.01,34.43
6667197,1935,1,197393,234211,1.21,-0.75,9.91,-0.03,-0.01,-0.00,34.43
6707197,1936,1,197463,234443,1.23,-0.76,9.93,-0.03,-0.01,-0.01,34.43
6747197,1892,1,197544,234765,1.24,-0.75,9.87,-0.03,-0.01,-0.00,34.43
6787197,1891,1,197631,235087,1.24,-0.75,9.89,-0.04,-0.01,-0.00,34.43
6826200,1956,1,197656,235288,1.22,-0.76,9.91,-0.03,-0.01,-0.00,34.43
6866197,1950,1,197790,235549,1.23,-0.75,9.91,-0.03,-0.01,-0.00,34.43
6906194,1936,1,197921,235805,1.22,-0.75,9.92,-0.03,-0.01,-0.00,34.43
6946197,1945,1,197985,235552,1.23,-0.76,9.91,-0.03,-0.01,-0.00,34.43
6986194,1957,1,197550,234312,1.23,-0.75,9.90,-0.03,-0.01,-0.00,34.43
7026223,1936,1,197303,233753,1.24,-0.75,9.88,-0.03,-0.01,-0.00,34.43
7066881,1906,1,197228,233927,1.23,-0.79,9.90,-0.03,-0.01,-0.00,34.31
7107197,1900,1,197322,234116,1.22,-0.75,9.90,-0.03,-0.01,-0.00,34.31
7147194,1905,1,197413,234268,1.24,-0.75,9.89,-0.03,-0.01,-0.00,34.31
7187197,1903,1,197473,234584,1.24,-0.77,9.89,-0.03,-0.01,-0.00,34.31
7227194,1924,1,197546,234733,1.22,-0.75,9.93,-0.03,-0.01,-0.00,34.31
7267197,1907,1,197600,234804,1.24,-0.76,9.93,-0.03,-0.01,-0.00,34.31
7307194,1927,1,197613,234962,1.21,-0.75,9.92,-0.03,-0.01,-0.00,34.31
7347197,1920,1,197703,235278,1.23,-0.76,9.91,-0.03,-0.01,-0.00,34.31
7387194,1901,1,197813,235545,1.24,-0.76,9.89,-0.03,-0.01,-0.00,34.31
7427197,1919,1,197847,235759,1.24,-0.75,9.90,-0.03,-0.01,-0.00,34.31
7467194,1887,1,197935,235950,1.25,-0.77,9.90,-0.03,-0.01,-0.00,34.31
7507197,1888,1,198019,236109,1.22,-0.74,9.91,-0.03,-0.01,-0.00,34.31
7547194,1878,1,198014,236225,1.23,-0.74,9.89,-0.03,-0.01,-0.00,34.31
7587197,1887,1,198107,236422,1.23,-0.75,9.92,-0.03,-0.01,-0.00,34.31
7627194,1887,1,198222,236567,1.25,-0.77,9.91,-0.03,-0.01,-0.00,34.31
7667197,1899,1,198193,236128,1.26,-0.75,9.90,-0.03,-0.01,-0.00,34.31
7707194,1908,1,197873,234899,1.22,-0.75,9.92,-0.03,-0.01,-0.00,34.31
7747197,1890,1,197548,234264,1.22,-0.74,9.93,-0.03,-0.01,-0.00,34.31
7787194,1904,1,197476,234282,1.24,-0.76,9.89,-0.03,-0.01,-0.00,34.31
7827197,1907,1,197567,234358,1.23,-0.76,9.91,-0.03,-0.01,-0.00,34.31
7866194,1966,1,197550,234573,1.23,-0.75,9.92,-0.03,-0.01,-0.00,34.31
7906197,1938,1,197694,234858,1.24,-0.76,9.91,-0.03,-0.01,-0.01,34.31
7946197,1910,1,197723,234950,1.24,-0.77,9.90,-0.03,-0.01,-0.00,34.31
7986197,1981,1,197723,234999,1.23,-0.75,9.89,-0.03,-0.01,-0.01,34.31
8026200,1941,1,197743,235157,1.24,-0.72,9.93,-0.03,-0.01,-0.00,34.31
8066197,1917,1,197760,235337,1.24,-0.75,9.89,-0.03,-0.01,-0.00,34.31
8106881,1862,1,197800,235462,1.21,-0.74,9.91,-0.03,-0.01,-0.00,34.33
8147197,1893,1,197767,235560,1.23,-0.77,9.88,-0.03,-0.01,-0.01,34.33
8187197,1904,1,197853,235709,1.23,-0.77,9.90,-0.03,-0.01,-0.01,34.33
8227197,1841,1,197868,235738,1.26,-0.75,9.89,-0.03,-0.01,-0.01,34.33
8267197,1890,1,197843,235848,1.24,-0.76,9.90,-0.03,-0.01,-0.00,34.33
8307197,1920,1,197874,235937,1.24,-0.75,9.91,-0.03,-0.01,-0.00,34.33
8347194,1871,1,197862,236097,1.24,-0.76,9.91,-0.03,-0.01,-0.00,34.33
8387197,1875,1,197877,235992,1.22,-0.76,9.92,-0.03,-0.01,-0.01,34.33
8427197,1872,1,197579,234728,1.22,-0.77,9.91,-0.03,-0.01,-0.00,34.33
8467197,1906,1,197184,233668,1.24,-0.77,9.89,-0.03,-0.01,-0.00,34.33
8507194,1878,1,196953,233450,1.24,-0.74,9.91,-0.03,-0.01,-0.00,34.33
8547197,1933,1,196931,233598,1.24,-0.75,9.92,-0.03,-0.01,-0.00,34.33
8587194,1917,1,197008,233617,1.23,-0.77,9.92,-0.03,-0.01,-0.00,34.33
8627197,1920,1,197009,233923,1.23,-0.74,9.93,-0.03,-0.01,-0.00,34.33
8667238,1903,1,197080,234128,1.20,-0.76,9.92,-0.03,-0.01,-0.01,34.33
8707197,1867,1,197144,234123,1.24,-0.77,9.87,-0.03,-0.01,-0.00,34.33
8747194,1850,1,197108,234156,1.22,-0.76,9.91,-0.03,-0.01,-0.00,34.33
8787197,1873,1,197134,234285,1.22,-0.77,9.90,-0.03,-0.01,-0.00,34.33
8827194,1879,1,197255,234567,1.22,-0.77,9.90,-0.03,-0.01,-0.01,34.33
8867233,1849,1,197322,234771,1.23,-0.75,9.92,-0.03,-0.01,-0.00,34.33
8905194,1921,1,197420,234944,1.23,-0.75,9.90,-0.03,-0.01,-0.00,34.33
8945197,1973,1,197466,235033,1.21,-0.76,9.89,-0.03,-0.01,-0.00,34.33
8985194,1971,1,197490,235181,1.23,-0.74,9.91,-0.03,-0.01,-0.00,34.33
9025213,1984,1,197490,235208,1.21,-0.76,9.91,-0.03,-0.01,-0.00,34.33
9065197,1998,1,197519,235250,1.23,-0.75,9.91,-0.03,-0.01,-0.00,34.33
9105197,1987,1,197533,235338,1.22,-0.74,9.90,-0.03,-0.01,-0.01,34.33
9145880,1906,1,197556,235297,1.24,-0.75,9.93,-0.03,-0.01,-0.00,34.07
9186197,1922,1,197416,234156,1.23,-0.74,9.91,-0.03,-0.01,-0.00,34.07
9226194,1915,1,196995,233123,1.24,-0.75,9.91,-0.03,-0.01,-0.00,34.07
9266197,1962,1,196825,233020,1.24,-0.76,9.90,-0.03,-0.01,-0.01,34.07
9306193,1883,1,196935,233404,1.24,-0.75,9.90,-0.03,-0.01,-0.00,34.07
9346197,1891,1,197073,233682,1.21,-0.72,9.92,-0.03,-0.01,-0.00,34.07
9386194,1900,1,197138,234152,1.23,-0.75,9.91,-0.03,-0.01,-0.00,34.07
9426197,1888,1,197335,234542,1.24,-0.76,9.92,-0.03,-0.01,-0.00,34.07
9466193,1893,1,197430,234805,1.22,-0.74,9.92,-0.03,-0.01,-0.00,34.07
9506197,1872,1,197543,235047,1.21,-0.74,9.90,-0.03,-0.01,-0.00,34.07
9546193,1887,1,197636,235299,1.22,-0.74,9.92,-0.03,-0.01,-0.00,34.07
9586197,1897,1,197782,235690,1.24,-0.75,9.92,-0.03,-0.01,-0.00,34.07
9626193,1901,1,197941,235983,1.22,-0.75,9.92,-0.03,-0.01,-0.00,34.07
9666197,1934,1,198031,236292,1.23,-0.77,9.93,-0.03,-0.01,-0.01,34.07
9706197,1904,1,198102,236516,1.22,-0.75,9.90,-0.03,-0.01,-0.00,34.07
9746197,1890,1,198089,236644,1.22,-0.77,9.93,-0.03,-0.01,-0.00,34.07
9786193,1911,1,198124,236690,1.22,-0.76,9.90,-0.03,-0.01,-0.00,34.07
9826197,1924,1,198093,236754,1.24,-0.75,9.92,-0.03,-0.01,-0.00,34.07
9866194,1904,1,198122,236885,1.24,-0.75,9.91,-0.03,-0.01,-0.00,34.07
9906197,1936,1,198159,237046,1.24,-0.75,9.90,-0.03,-0.01,-0.00,34.07
9946193,1879,1,198036,235968,1.23,-0.77,9.88,-0.03,-0.01,-0.01,34.07
9986197,1917,1,197564,234997,1.24,-0.76,9.90,-0.03,-0.01,-0.00,34.07
10026200,1866,1,197445,234811,1.24,-0.74,9.92,-0.03,-0.01,-0.00,34.07
10066197,1904,1,197447,234985,1.24,-0.76,9.90,-0.03,-0.01,-0.00,34.07
10106194,1909,1,197503,235127,1.24,-0.75,9.90,-0.03,-0.01,-0.00,34.07
10146883,1831,1,197553,235411,1.23,-0.75,9.89,-0.03,-0.01,-0.00,33.83
10185196,1906,1,197746,235653,1.26,-0.75,9.93,-0.03,-0.01,-0.00,33.83
10225197,1898,1,197726,235665,1.23,-0.75,9.90,-0.03,-0.01,-0.00,33.83
10265193,1934,1,197730,235633,1.22,-0.74,9.88,-0.03,-0.01,-0.00,33.83
10305242,1946,1,197685,235739,1.21,-0.76,9.87,-0.03,-0.01,-0.00,33.83
10345196,1899,1,197809,235955,1.22,-0.77,9.92,-0.03,-0.01,-0.00,33.83
10385197,1923,1,197844,236243,1.23,-0.76,9.90,-0.03,-0.01,-0.00,33.83
10425194,1930,1,197986,236466,1.24,-0.74,9.91,-0.03,-0.01,-0.00,33.83
10465197,1938,1,198040,236661,1.22,-0.76,9.92,-0.03,-0.01,-0.00,33.83
10505234,1946,1,198156,236932,1.24,-0.74,9.94,-0.03,-0.01,-0.00,33.83
10545196,1963,1,198345,237122,1.24,-0.78,9.89,-0.03,-0.01,-0.00,33.83
10585196,1936,1,198380,237347,1.24,-0.73,9.92,-0.03,-0.01,-0.00,33.83
10625196,1930,1,198421,236909,1.23,-0.76,9.89,-0.03,-0.01,-0.00,33.83
10665196,1936,1,198074,235797,1.24,-0.73,9.93,-0.03,-0.01,-0.00,33.83
10705196,1904,1,197766,235412,1.23,-0.76,9.93,-0.03,-0.01,-0.00,33.83
10745196,1918,1,197766,235366,1.25,-0.74,9.91,-0.03,-0.01,-0.00,33.83
10785196,1902,1,197690,235353,1.24,-0.75,9.92,-0.03,-0.01,-0.00,33.83
10825196,1904,1,197644,235434,1.22,-0.75,9.90,-0.03,-0.01,-0.01,33.83
10865196,1933,1,197762,235637,1.24,-0.77,9.93,-0.03,-0.01,-0.00,33.83
10905196,1925,1,197692,235600,1.22,-0.76,9.93,-0.03,-0.01,-0.00,33.83
10945196,1923,1,197621,235548,1.23,-0.76,9.90,-0.03,-0.01,-0.00,33.83
10985193,1924,1,197580,235561,1.23,-0.75,9.89,-0.03,-0.01,-0.00,33.83
11025203,1936,1,197550,235625,1.23,-0.75,9.92,-0.03,-0.01,-0.00,33.83
11065196,1890,1,197509,235750,1.23,-0.76,9.93,-0.04,-0.02,-0.00,33.83
11105196,1934,1,197538,235781,1.24,-0.75,9.94,-0.03,-0.01,-0.00,33.83
11145196,1943,1,197585,235841,1.23,-0.75,9.90,-0.03,-0.01,-0.00,33.83
11185883,1927,1,197563,235989,1.23,-0.75,9.90,-0.03,-0.01,-0.00,32.99
11226192,1927,1,197478,236044,1.23,-0.75,9.92,-0.03,-0.01,-0.00,32.99
11266197,1893,1,197476,236094,1.24,-0.74,9.90,-0.03,-0.01,-0.00,32.99
11306192,1904,1,197477,236082,1.24,-0.76,9.94,-0.03,-0.01,-0.00,32.99
11346197,1877,1,197366,235222,1.22,-0.76,9.93,-0.03,-0.01,-0.00,32.99
11386193,1910,1,196899,233923,1.23,-0.76,9.93,-0.03,-0.01,-0.00,32.99
11426197,1911,1,196586,233471,1.22,-0.74,9.89,-0.03,-0.01,-0.00,32.99
11466192,1911,1,196560,233491,1.25,-0.76,9.90,-0.03,-0.01,-0.00,32.99
11506194,1922,1,196502,233414,1.23,-0.76,9.92,-0.03,-0.01,-0.00,32.99
11544196,2018,1,196493,233522,1.23,-0.75,9.94,-0.03,-0.01,-0.00,32.99
11584197,1987,1,196559,233764,1.21,-0.75,9.91,-0.03,-0.01,-0.00,32.99
11624197,1988,1,196615,233828,1.19,-0.73,9.89,-0.03,-0.01,-0.00,32.99
11664196,1971,1,196673,233903,1.22,-0.75,9.87,-0.03,-0.01,-0.00,32.99
11704196,1991,1,196680,234027,1.21,-0.76,9.93,-0.03,-0.01,-0.00,32.99
11744195,1968,1,196751,234172,1.23,-0.76,9.90,-0.03,-0.01,-0.00,32.99
11784193,1938,1,196793,234365,1.23,-0.73,9.93,-0.03,-0.01,-0.00,32.99
11824196,1943,1,196935,234463,1.23,-0.75,9.93,-0.04,-0.02,-0.00,32.99
11864196,1919,1,196947,234710,1.23,-0.75,9.91,-0.04,-0.02,-0.00,32.99
11904195,1946,1,197005,234856,1.24,-0.75,9.93,-0.04,-0.02,-0.00,32.99
11944231,1971,1,196993,234923,1.23,-0.74,9.91,-0.03,-0.01,-0.00,32.99
11984196,1942,1,197015,235198,1.24,-0.74,9.87,-0.03,-0.01,-0.00,32.99
12024219,1968,1,197127,235383,1.22,-0.75,9.90,-0.04,-0.02,-0.00,32.99
12064196,1958,1,197127,235195,1.24,-0.77,9.89,-0.04,-0.02,-0.00,32.99
12104196,1969,1,196930,234071,1.23,-0.75,9.90,-0.03,-0.01,-0.00,32.99
12144198,1952,1,196599,233430,1.24,-0.76,9.92,-0.03,-0.01,-0.00,32.99
12184195,1962,1,196411,233464,1.21,-0.77,9.90,-0.03,-0.01,-0.00,32.99
12224882,1878,1,196578,233590,1.23,-0.76,9.90,-0.03,-0.01,-0.00,31.43
12265193,1907,1,196531,233739,1.23,-0.75,9.92,-0.03,-0.01,-0.00,31.43
12305196,1914,1,196669,233939,1.24,-0.76,9.91,-0.03,-0.01,-0.01,31.43
12345225,1899,1,196731,234290,1.23,-0.76,9.92,-0.03,-0.01,-0.00,31.43
12385196,1902,1,196872,234503,1.24,-0.77,9.90,-0.03,-0.01,-0.00,31.43
12425192,1899,1,196948,234615,1.22,-0.76,9.93,-0.03,-0.01,-0.00,31.43
12465197,1937,1,197016,234888,1.22,-0.77,9.87,-0.03,-0.01,-0.00,31.43
12505197,1909,1,197104,235172,1.24,-0.75,9.88,-0.03,-0.01,-0.00,31.43
12545197,1885,1,197183,235451,1.23,-0.74,9.91,-0.03,-0.01,-0.01,31.43
12585196,1887,1,197272,235676,1.23,-0.74,9.92,-0.03,-0.00,-0.00,31.43
12625196,1875,1,197402,235814,1.23,-0.73,9.90,-0.03,-0.01,-0.00,31.43
12665194,1885,1,197375,235923,1.21,-0.76,9.93,-0.03,-0.01,-0.00,31.43
12705197,1891,1,197445,236083,1.23,-0.76,9.94,-0.04,-0.01,-0.00,31.43
12745196,1904,1,197538,236368,1.24,-0.75,9.91,-0.03,-0.01,-0.00,31.43
12785196,1907,1,197624,236376,1.23,-0.76,9.89,-0.03,-0.01,-0.00,31.43
12825192,1895,1,197474,235492,1.22,-0.77,9.93,-0.04,-0.01,-0.00,31.43
12865196,1889,1,197212,234796,1.23,-0.74,9.89,-0.03,-0.01,-0.00,31.43
12905192,1920,1,197038,234573,1.25,-0.75,9.91,-0.03,-0.01,-0.00,31.43
12945196,1931,1,197061,234673,1.23,-0.76,9.91,-0.03,-0.01,-0.00,31.43
12985192,1927,1,197129,234789,1.24,-0.75,9.91,-0.03,-0.01,-0.00,31.43
13025204,1920,1,197176,234929,1.25,-0.75,9.91,-0.03,-0.01,-0.00,31.43
13065192,1919,1,197159,235097,1.23,-0.74,9.92,-0.03,-0.01,-0.01,31.43
13105196,1927,1,197262,234995,1.23,-0.76,9.93,-0.03,-0.01,-0.00,31.43
13145197,1923,1,197184,235050,1.24,-0.76,9.93,-0.03,-0.01,-0.00,31.43
13185197,1898,1,197306,235265,1.22,-0.76,9.91,-0.03,-0.01,-0.00,31.43
13225883,1859,1,197398,235559,1.24,-0.74,9.93,-0.03,-0.01,-0.00,31.69
13264196,1908,1,197489,235727,1.24,-0.77,9.92,-0.03,-0.01,-0.00,31.69
13304196,1919,1,197489,235884,1.23,-0.75,9.91,-0.03,-0.01,-0.00,31.69
13344196,1915,1,197555,235993,1.21,-0.74,9.91,-0.03,-0.01,-0.00,31.69
13384196,1931,1,197597,236156,1.21,-0.75,9.90,-0.03,-0.01,-0.00,31.69
13424196,1958,1,197684,236509,1.21,-0.75,9.92,-0.03,-0.01,-0.00,31.69
13464196,1946,1,197747,236521,1.21,-0.76,9.88,-0.03,-0.01,-0.00,31.69
13504196,1925,1,197647,235679,1.23,-0.76,9.91,-0.03,-0.01,-0.00,31.69
13544196,1952,1,197312,235086,1.22,-0.75,9.91,-0.03,-0.01,-0.00,31.69
13584213,1936,1,197242,234968,1.23,-0.74,9.92,-0.03,-0.01,-0.00,31.69
13624196,1917,1,197263,235131,1.24,-0.76,9.92,-0.03,-0.01,-0.00,31.69
13664196,1912,1,197374,235355,1.21,-0.77,9.91,-0.03,-0.01,-0.00,31.69
13704196,1939,1,197550,235973,1.26,-0.75,9.90,-0.04,-0.01,-0.00,31.69
13744196,1953,1,197878,236560,1.22,-0.77,9.89,-0.04,-0.01,-0.00,31.69
13784216,1917,1,198145,237237,1.22,-0.76,9.89,-0.04,-0.02,-0.00,31.69
13824196,1891,1,198610,238108,1.24,-0.75,9.92,-0.04,-0.01,-0.01,31.69
13864196,1913,1,199094,239046,1.23,-0.76,9.93,-0.04,-0.01,-0.01,31.69
13904196,1907,1,199625,240144,1.19,-0.77,9.91,-0.04,-0.01,-0.01,31.69
13944197,1904,1,200032,241052,1.24,-0.75,9.90,-0.04,-0.02,-0.00,31.69
13984220,1904,1,200359,241588,1.25,-0.78,9.90,-0.04,-0.02,-0.00,31.69
14024219,1923,1,200617,242161,1.24,-0.78,9.91,-0.03,-0.01,-0.00,31.69
14064197,1915,1,200943,242978,1.24,-0.77,9.91,-0.04,-0.01,-0.01,31.69
14104196,1933,1,201414,243901,1.24,-0.77,9.91,-0.04,-0.01,-0.01,31.69
14144196,1911,1,201888,244742,1.26,-0.77,9.90,-0.04,-0.03,-0.01,31.69
14184197,1922,1,202158,244807,1.24,-0.77,9.91,-0.04,-0.02,-0.00,31.69
14224196,1914,1,201977,243514,1.25,-0.77,9.92,-0.04,-0.01,-0.00,31.69
14264883,1892,1,201613,243211,1.27,-0.76,9.89,-0.03,-0.01,-0.00,31.95
14303196,1970,1,201720,243496,1.25,-0.80,9.89,-0.03,-0.01,-0.01,31.95
14343196,1990,1,201779,243669,1.25,-0.77,9.92,-0.03,-0.01,-0.00,31.95
14383196,1985,1,201869,243931,1.25,-0.76,9.87,-0.03,-0.01,-0.00,31.95
14423196,1984,1,202122,244484,1.26,-0.79,9.91,-0.03,-0.01,-0.00,31.95
14463195,1931,1,202310,244608,1.24,-0.77,9.92,-0.03,-0.01,-0.00,31.95
14503196,1923,1,202354,244662,1.28,-0.78,9.91,-0.03,-0.01,-0.00,31.95
14543196,1953,1,202390,244638,1.24,-0.79,9.91,-0.03,-0.01,-0.00,31.95
14583196,1940,1,202412,244824,1.26,-0.80,9.89,-0.03,-0.01,-0.00,31.95
14623196,1984,1,202497,245045,1.27,-0.79,9.91,-0.03,-0.01,-0.00,31.95
14663195,1957,1,202525,245202,1.26,-0.77,9.90,-0.03,-0.01,-0.00,31.95
14703196,1978,1,202545,245296,1.27,-0.79,9.91,-0.03,-0.01,-0.00,31.95
14743196,1994,1,202524,245442,1.27,-0.79,9.89,-0.03,-0.01,-0.00,31.95
14783196,1957,1,202593,245570,1.26,-0.77,9.92,-0.03,-0.01,-0.00,31.95
14823196,1964,1,202592,245624,1.26,-0.78,9.88,-0.03,-0.01,-0.00,31.95
14863196,1939,1,202596,245470,1.29,-0.75,9.89,-0.03,-0.01,-0.00,31.95
14903196,1937,1,202288,244074,1.27,-0.77,9.91,-0.03,-0.01,-0.00,31.95
14943196,1959,1,201773,243050,1.25,-0.79,9.90,-0.03,-0.01,-0.00,31.95
14983193,1945,1,201606,243005,1.26,-0.78,9.92,-0.03,-0.01,-0.00,31.95
15023206,1944,1,201698,243067,1.26,-0.77,9.91,-0.03,-0.01,-0.00,31.95
15063196,1963,1,201577,243193,1.26,-0.78,9.91,-0.03,-0.01,-0.00,31.95
15103196,1929,1,201642,243504,1.24,-0.79,9.90,-0.03,-0.01,-0.00,31.95
15143193,1932,1,201742,243736,1.23,-0.77,9.90,-0.03,-0.01,-0.01,31.95
15183196,1931,1,201742,243725,1.24,-0.78,9.90,-0.03,-0.01,-0.00,31.95
15223193,1923,1,201700,243697,1.24,-0.77,9.92,-0.03,-0.01,-0.00,31.95
15263196,1941,1,201718,243783,1.26,-0.77,9.89,-0.03,-0.01,-0.00,31.95
15303883,1899,1,201908,244101,1.24,-0.78,9.92,-0.03,-0.01,-0.00,31.99
15344196,1888,1,202078,244377,1.24,-0.75,9.90,-0.03,-0.01,-0.00,31.99
15384194,1921,1,202031,244588,1.26,-0.75,9.89,-0.03,-0.01,-0.00,31.99
15424201,1906,1,202098,244689,1.25,-0.82,9.91,-0.03,-0.01,-0.00,31.99
15464197,1895,1,202095,244734,1.27,-0.74,9.91,-0.03,-0.01,-0.00,31.99
15504197,1922,1,202085,244765,1.26,-0.79,9.88,-0.03,-0.01,-0.00,31.99
15544196,1904,1,202060,244275,1.24,-0.77,9.91,-0.03,-0.01,-0.00,31.99
15584196,1914,1,201578,242636,1.26,-0.78,9.91,-0.03,-0.01,-0.00,31.99
15624211,1905,1,201244,242085,1.26,-0.77,9.90,-0.03,-0.01,-0.01,31.99
15664197,1921,1,201193,242085,1.24,-0.78,9.89,-0.03,-0.01,-0.00,31.99
15704196,1907,1,201173,242273,1.27,-0.78,9.91,-0.03,-0.01,-0.00,31.99
15744197,1883,1,201223,242447,1.26,-0.78,9.90,-0.03,-0.01,-0.00,31.99
15784194,1872,1,201337,242724,1.24,-0.79,9.88,-0.03,-0.01,-0.00,31.99
15824197,1881,1,201329,242602,1.24,-0.79,9.88,-0.03,-0.01,-0.01,31.99
15863196,1882,1,201199,242442,1.25,-0.76,9.89,-0.03,-0.01,-0.00,31.99
15903196,1943,1,201161,242382,1.25,-0.77,9.90,-0.03,-0.01,-0.00,31.99
15943196,1915,1,201105,242466,1.27,-0.79,9.90,-0.03,-0.01,-0.00,31.99
15983196,1933,1,201119,242580,1.27,-0.78,9.90,-0.03,-0.01,-0.00,31.99
16023208,1920,1,201187,242796,1.23,-0.77,9.93,-0.03,-0.01,-0.00,31.99
16063196,1929,1,201259,242966,1.25,-0.76,9.90,-0.03,-0.01,-0.00,31.99
16103196,1943,1,201330,243176,1.26,-0.78,9.91,-0.03,-0.01,-0.00,31.99
16143197,1941,1,201371,243237,1.25,-0.77,9.92,-0.03,-0.01,-0.00,31.99
16183196,1959,1,201357,242880,1.26,-0.77,9.91,-0.03,-0.01,-0.00,31.99
16223196,1932,1,200956,241288,1.24,-0.78,9.90,-0.03,-0.01,-0.00,31.99
16263193,1954,1,200576,240727,1.26,-0.77,9.92,-0.03,-0.01,-0.00,31.99
16303196,1953,1,200464,240653,1.26,-0.77,9.91,-0.03,-0.01,-0.00,31.99
16343883,1878,1,200400,240793,1.26,-0.77,9.92,-0.03,-0.01,-0.00,31.91
16384197,1899,1,200400,240976,1.27,-0.77,9.90,-0.03,-0.01,-0.01,31.91
16424192,1890,1,200478,241336,1.25,-0.77,9.91,-0.03,-0.01,-0.00,31.91
16464197,1887,1,200595,241509,1.25,-0.77,9.91,-0.03,-0.01,-0.00,31.91
16504192,1897,1,200507,241421,1.26,-0.77,9.89,-0.03,-0.01,-0.00,31.91
16544197,1904,1,200376,241013,1.28,-0.77,9.91,-0.03,-0.02,-0.00,31.91
16584196,1911,1,199971,240694,1.30,-0.80,9.86,-0.03,-0.02,-0.00,31.91
16624194,1891,1,199994,241198,1.24,-0.79,9.90,-0.03,-0.01,-0.01,31.91
16664192,1909,1,200167,241710,1.27,-0.77,9.87,-0.04,-0.01,-0.00,31.91
16704197,1901,1,200302,242061,1.26,-0.77,9.92,-0.03,-0.01,-0.00,31.91
16744192,1885,1,200486,242597,1.27,-0.81,9.91,-0.04,-0.01,-0.00,31.91
16784197,1917,1,200690,242950,1.25,-0.78,9.91,-0.03,-0.01,-0.00,31.91
16824193,1899,1,200675,242457,1.26,-0.80,9.92,-0.03,-0.01,-0.00,31.91
16863196,1960,1,200337,240822,1.24,-0.76,9.90,-0.03,-0.01,-0.00,31.91
16903193,1935,1,200016,240559,1.27,-0.78,9.91,-0.03,-0.01,-0.00,31.91
16943197,1938,1,200123,240788,1.28,-0.81,9.90,-0.03,-0.01,-0.00,31.91
16983193,1909,1,200124,240858,1.24,-0.76,9.94,-0.03,-0.01,-0.00,31.91
17023206,1902,1,200118,241031,1.24,-0.77,9.93,-0.03,-0.01,-0.00,31.91
17063224,1876,1,200194,241320,1.27,-0.77,9.88,-0.03,-0.01,-0.00,31.91
17103197,1881,1,200204,241229,1.26,-0.77,9.91,-0.03,-0.01,-0.00,31.91
17143196,1900,1,200141,241173,1.24,-0.78,9.90,-0.03,-0.01,-0.00,31.91
17183196,1902,1,200224,241363,1.27,-0.78,9.92,-0.03,-0.01,-0.00,31.91
17223196,1883,1,200262,241631,1.25,-0.76,9.90,-0.03,-0.01,-0.00,31.91
17263229,1899,1,200394,241945,1.25,-0.77,9.90,-0.03,-0.01,-0.00,31.91
17303194,1938,1,200560,242375,1.24,-0.77,9.88,-0.03,-0.01,-0.00,31.91
17343196,1902,1,200714,242634,1.26,-0.77,9.89,-0.03,-0.01,-0.00,31.91
17383883,1870,1,200761,242885,1.26,-0.78,9.92,-0.03,-0.01,-0.00,31.77
17422196,1958,1,200765,242825,1.27,-0.79,9.92,-0.03,-0.01,-0.00,31.77
17462196,1959,1,200548,241291,1.24,-0.77,9.91,-0.03,-0.01,-0.00,31.77
17502196,1968,1,200000,240272,1.24,-0.77,9.90,-0.03,-0.01,-0.00,31.77
17542193,1997,1,199831,240226,1.25,-0.78,9.89,-0.03,-0.01,-0.00,31.77
17582195,1990,1,199854,240110,1.24,-0.75,9.88,-0.03,-0.01,-0.00,31.77
17622195,1971,1,199835,240208,1.26,-0.78,9.91,-0.03,-0.01,-0.00,31.77
17662196,1965,1,199921,240390,1.25,-0.77,9.91,-0.03,-0.01,-0.00,31.77
17702196,1968,1,199939,240333,1.25,-0.77,9.90,-0.03,-0.01,-0.00,31.77
17742195,1941,1,199885,240296,1.27,-0.78,9.91,-0.03,-0.01,-0.00,31.77
17782196,1942,1,199879,240458,1.25,-0.77,9.91,-0.04,-0.01,-0.00,31.77
17822196,1947,1,199998,240705,1.25,-0.78,9.93,-0.03,-0.01,-0.00,31.77
17862197,1951,1,200082,240989,1.27,-0.77,9.91,-0.03,-0.01,-0.00,31.77
17903196,1928,1,200210,241173,1.27,-0.77,9.91,-0.03,-0.01,-0.00,31.77
17943196,1926,1,200188,241187,1.25,-0.78,9.92,-0.03,-0.01,-0.00,31.77
17983196,1897,1,200102,241316,1.24,-0.77,9.89,-0.03,-0.01,-0.00,31.77
18023206,1920,1,200162,241411,1.26,-0.76,9.88,-0.03,-0.01,-0.00,31.77
18063197,1900,1,199990,240234,1.26,-0.77,9.90,-0.03,-0.01,-0.01,31.77
18103197,1923,1,199438,239075,1.26,-0.76,9.90,-0.03,-0.01,-0.00,31.77
18143197,1920,1,199201,238732,1.25,-0.79,9.89,-0.03,-0.01,-0.00,31.77
18183197,1921,1,199115,238783,1.25,-0.79,9.90,-0.03,-0.01,-0.00,31.77
18223197,1915,1,199134,238737,1.24,-0.79,9.90,-0.03,-0.01,-0.00,31.77
18263197,1872,1,199008,238796,1.28,-0.79,9.90,-0.03,-0.01,-0.00,31.77
18303196,1857,1,199084,238973,1.27,-0.77,9.89,-0.03,-0.01,-0.00,31.77
18343196,1863,1,199047,238832,1.25,-0.77,9.91,-0.03,-0.01,-0.00,31.77
18383883,1869,1,198891,238783,1.26,-0.76,9.91,-0.03,-0.01,-0.00,31.85
18422196,1904,1,198867,238867,1.25,-0.75,9.91,-0.03,-0.01,-0.00,31.85
18462196,1908,1,198977,239213,1.26,-0.78,9.89,-0.03,-0.01,-0.00,31.85
18502196,1938,1,199140,239511,1.24,-0.74,9.94,-0.03,-0.01,-0.01,31.85
18542196,1923,1,199227,239858,1.25,-0.76,9.90,-0.04,-0.01,-0.00,31.85
18582196,1973,1,199363,240253,1.25,-0.77,9.90,-0.04,-0.01,-0.00,31.85
18622196,1931,1,199525,240648,1.26,-0.77,9.90,-0.03,-0.01,-0.00,31.85
18662196,1942,1,199607,240320,1.25,-0.76,9.91,-0.03,-0.01,-0.00,31.85
18702242,1950,1,199169,238795,1.27,-0.76,9.90,-0.03,-0.01,-0.00,31.85
18742196,1949,1,198837,238016,1.25,-0.78,9.91,-0.03,-0.01,-0.00,31.85
18782196,1967,1,198694,237858,1.25,-0.79,9.88,-0.03,-0.01,-0.01,31.85
18822196,1951,1,198671,237917,1.25,-0.77,9.89,-0.03,-0.01,-0.00,31.85
18862196,1965,1,198730,237994,1.25,-0.78,9.91,-0.03,-0.01,-0.00,31.85
18902224,1936,1,198815,238291,1.25,-0.77,9.92,-0.03,-0.01,-0.00,31.85
18942196,1931,1,198890,238419,1.27,-0.77,9.93,-0.03,-0.01,-0.00,31.85
18982196,1915,1,198900,238432,1.24,-0.77,9.92,-0.03,-0.01,-0.00,31.85
19022196,1909,1,198922,238451,1.24,-0.76,9.91,-0.03,-0.01,-0.00,31.85
19062196,1934,1,198969,238641,1.24,-0.77,9.88,-0.03,-0.01,-0.00,31.85
19102196,1952,1,199037,238919,1.24,-0.77,9.87,-0.03,-0.01,-0.00,31.85
19142196,1930,1,199093,239136,1.26,-0.76,9.88,-0.03,-0.01,-0.00,31.85
19182196,1952,1,199197,239569,1.26,-0.77,9.91,-0.04,-0.01,-0.00,31.85
19222196,1939,1,199399,240143,1.27,-0.76,9.91,-0.04,-0.01,-0.00,31.85
19262196,1933,1,199634,240616,1.24,-0.77,9.92,-0.03,-0.01,-0.00,31.85
19302196,1936,1,199702,240489,1.27,-0.77,9.89,-0.03,-0.01,-0.00,31.85
19342196,1932,1,199336,238827,1.26,-0.76,9.87,-0.03,-0.01,-0.00,31.85
19382197,1917,1,198877,238050,1.27,-0.76,9.90,-0.03,-0.01,-0.00,31.85
19422883,1940,1,198706,237984,1.27,-0.78,9.90,-0.03,-0.01,-0.00,31.77
19463192,1915,1,198726,238073,1.24,-0.75,9.93,-0.03,-0.01,-0.00,31.77
19503197,1932,1,198768,238161,1.25,-0.78,9.89,-0.03,-0.01,-0.00,31.77
19543192,1917,1,198718,238522,1.27,-0.79,9.90,-0.03,-0.01,-0.00,31.77
19583194,1885,1,198842,238804,1.25,-0.77,9.91,-0.03,-0.01,-0.00,31.77
19623197,1887,1,198882,238968,1.26,-0.79,9.92,-0.04,-0.01,-0.01,31.77
19663197,1919,1,198929,239183,1.25,-0.80,9.91,-0.03,-0.01,-0.00,31.77
19703192,1882,1,199002,239539,1.26,-0.76,9.91,-0.03,-0.01,-0.00,31.77
19743197,1874,1,199145,239810,1.26,-0.77,9.90,-0.03,-0.01,-0.00,31.77
19783192,1889,1,199238,240121,1.25,-0.76,9.88,-0.03,-0.01,-0.00,31.77
19823197,1909,1,199332,240339,1.25,-0.78,9.89,-0.03,-0.01,-0.00,31.77
19863192,1907,1,199349,240482,1.27,-0.77,9.91,-0.03,-0.01,-0.00,31.77
19903197,1937,1,199475,240720,1.26,-0.76,9.93,-0.03,-0.01,-0.00,31.77
19943192,1924,1,199528,240450,1.25,-0.76,9.92,-0.03,-0.01,-0.00,31.77
19983197,1879,1,199123,238868,1.24,-0.78,9.92,-0.03,-0.01,-0.00,31.77
20023205,1890,1,198768,238344,1.26,-0.78,9.91,-0.03,-0.01,-0.00,31.77
20063197,1905,1,198689,238256,1.26,-0.77,9.91,-0.03,-0.01,-0.00,31.77
20103192,1905,1,198656,238280,1.26,-0.77,9.93,-0.03,-0.01,-0.00,31.77
20143197,1908,1,198714,238516,1.24,-0.79,9.92,-0.03,-0.01,-0.00,31.77
20183192,1882,1,198772,238776,1.23,-0.77,9.92,-0.03,-0.01,-0.00,31.77
20221195,1935,1,198800,238850,1.25,-0.76,9.91,-0.03,-0.01,-0.00,31.77
20261196,1930,1,198813,238807,1.25,-0.77,9.92,-0.03,-0.01,-0.00,31.77
20301196,1922,1,198831,238844,1.25,-0.77,9.89,-0.03,-0.01,-0.00,31.77
20341201,1927,1,198850,238967,1.24,-0.77,9.91,-0.03,-0.01,-0.01,31.77
20381196,1985,1,198891,239076,1.26,-0.79,9.90,-0.03,-0.01,-0.00,31.77
20421193,1947,1,198886,239174,1.26,-0.75,9.89,-0.03,-0.01,-0.01,31.77
20461882,1887,1,198924,239191,1.28,-0.77,9.91,-0.03,-0.01,-0.00,31.89
20502197,1907,1,199000,239307,1.26,-0.75,9.92,-0.03,-0.01,-0.00,31.89
20542229,1901,1,199027,239277,1.25,-0.77,9.90,-0.03,-0.01,-0.00,31.89
20582196,1919,1,198884,238320,1.26,-0.76,9.91,-0.03,-0.01,-0.01,31.89
20622196,1892,1,198403,237111,1.23,-0.78,9.92,-0.03,-0.01,-0.00,31.89
20662196,1917,1,198065,236740,1.26,-0.78,9.90,-0.03,-0.01,-0.00,31.89
20702196,1920,1,198061,236937,1.25,-0.78,9.91,-0.03,-0.01,-0.00,31.89
20742215,1918,1,198188,237067,1.28,-0.76,9.91,-0.03,-0.01,-0.00,31.89
20782196,1903,1,198227,237370,1.25,-0.76,9.92,-0.03,-0.01,-0.00,31.89
20822197,1899,1,198347,237681,1.27,-0.78,9.92,-0.03,-0.01,-0.00,31.89
20862196,1879,1,198393,237803,1.26,-0.77,9.92,-0.03,-0.01,-0.00,31.89
20902196,1856,1,198417,237858,1.24,-0.77,9.91,-0.03,-0.01,-0.00,31.89
20942196,1901,1,198446,238108,1.25,-0.79,9.91,-0.03,-0.01,-0.00,31.89
20981197,1954,1,198629,238454,1.26,-0.77,9.90,-0.03,-0.01,-0.00,31.89
21021207,1967,1,198683,238624,1.24,-0.77,9.90,-0.03,-0.01,-0.00,31.89
21061193,1961,1,198648,238641,1.24,-0.78,9.90,-0.03,-0.01,-0.00,31.89
21101195,1983,1,198646,238619,1.27,-0.76,9.91,-0.03,-0.01,-0.00,31.89
21141196,1967,1,198521,238669,1.24,-0.78,9.90,-0.03,-0.01,-0.00,31.89
21181196,1953,1,198493,238764,1.26,-0.79,9.91,-0.03,-0.01,-0.00,31.89
21221196,1968,1,198498,238551,1.27,-0.75,9.92,-0.03,-0.01,-0.01,31.89
21261196,1972,1,198184,237243,1.23,-0.78,9.91,-0.03,-0.01,-0.00,31.89
21301196,1962,1,197732,236273,1.24,-0.77,9.90,-0.03,-0.01,-0.00,31.89
21341196,1984,1,197603,236106,1.25,-0.76,9.92,-0.03,-0.01,-0.00,31.89
21381196,1968,1,197630,236085,1.25,-0.78,9.91,-0.03,-0.01,-0.00,31.89
21421196,1974,1,197537,236199,1.25,-0.76,9.90,-0.03,-0.01,-0.00,31.89
21461880,1913,1,197636,236565,1.25,-0.77,9.92,-0.03,-0.01,-0.00,31.85
21502197,1883,1,197848,236882,1.27,-0.77,9.91,-0.03,-0.01,-0.00,31.85
21542197,1883,1,197882,237128,1.25,-0.77,9.94,-0.03,-0.01,-0.00,31.85
21582197,1901,1,198050,237455,1.24,-0.78,9.90,-0.03,-0.01,-0.00,31.85
21622194,1904,1,198175,237743,1.24,-0.76,9.91,-0.03,-0.01,-0.00,31.85
21662196,1914,1,198293,237981,1.24,-0.77,9.90,-0.03,-0.01,-0.00,31.85
21702197,1917,1,198316,238159,1.27,-0.77,9.91,-0.03,-0.01,-0.00,31.85
21742197,1899,1,198388,238370,1.25,-0.77,9.92,-0.03,-0.01,-0.00,31.85
21782197,1889,1,198422,238497,1.24,-0.75,9.88,-0.03,-0.01,-0.00,31.85
21822197,1878,1,198494,238747,1.24,-0.74,9.91,-0.03,-0.01,-0.00,31.85
21862196,1895,1,198556,238854,1.27,-0.75,9.90,-0.03,-0.01,-0.00,31.85
21902197,1887,1,198548,238979,1.25,-0.77,9.94,-0.03,-0.01,-0.00,31.85
21942196,1907,1,198747,238962,1.24,-0.78,9.91,-0.03,-0.01,-0.01,31.85
21981199,1904,1,198479,237884,1.26,-0.77,9.92,-0.03,-0.01,-0.01,31.85
22021206,1939,1,198274,237349,1.25,-0.76,9.90,-0.03,-0.01,-0.00,31.85
22061196,1925,1,198235,237212,1.26,-0.78,9.89,-0.03,-0.01,-0.00,31.85
22101196,1941,1,198098,237010,1.27,-0.75,9.89,-0.03,-0.01,-0.00,31.85
22141196,1904,1,197956,236697,1.25,-0.77,9.93,-0.04,-0.02,-0.00,31.85
22181216,1941,1,197880,236716,1.24,-0.77,9.92,-0.03,-0.01,-0.01,31.85
22221196,1887,1,197899,236774,1.24,-0.77,9.90,-0.03,-0.01,-0.01,31.85
22261196,1927,1,197918,236785,1.26,-0.75,9.91,-0.03,-0.01,-0.00,31.85
22301196,1945,1,197877,236918,1.24,-0.75,9.90,-0.03,-0.01,-0.00,31.85
22341196,1915,1,198027,237173,1.23,-0.76,9.93,-0.03,-0.01,-0.00,31.85
22381213,1951,1,198086,237278,1.25,-0.74,9.93,-0.03,-0.01,-0.00,31.85
22421196,1919,1,198084,237271,1.24,-0.75,9.89,-0.03,-0.01,-0.00,31.85
22461883,1883,1,197972,237322,1.26,-0.76,9.91,-0.03,-0.01,-0.00,31.69
22502197,1890,1,198024,237464,1.24,-0.76,9.91,-0.03,-0.01,-0.00,31.69
22542198,1921,1,198077,237631,1.25,-0.76,9.90,-0.03,-0.01,-0.00,31.69
22582192,1916,1,198035,237857,1.25,-0.77,9.90,-0.03,-0.01,-0.00,31.69
22622194,1898,1,198191,238162,1.26,-0.79,9.90,-0.03,-0.01,-0.01,31.69
22662192,1917,1,198277,238204,1.24,-0.77,9.93,-0.03,-0.01,-0.00,31.69
22702197,1920,1,198044,237096,1.27,-0.76,9.91,-0.03,-0.01,-0.00,31.69
22742197,1926,1,197481,235673,1.24,-0.79,9.91,-0.03,-0.01,-0.00,31.69
22782197,1904,1,197115,235202,1.26,-0.75,9.91,-0.03,-0.01,-0.00,31.69
22822192,1890,1,197111,235297,1.25,-0.78,9.90,-0.03,-0.01,-0.00,31.69
22862194,1900,1,197211,235553,1.25,-0.78,9.92,-0.03,-0.01,-0.00,31.69
22902192,1904,1,197288,236029,1.26,-0.77,9.89,-0.03,-0.01,-0.00,31.69
22942197,1904,1,197528,236563,1.24,-0.78,9.89,-0.03,-0.01,-0.01,31.69
22982193,1913,1,197623,236856,1.24,-0.76,9.93,-0.04,-0.01,-0.00,31.69
23022197,1927,1,197776,237103,1.26,-0.76,9.91,-0.03,-0.01,-0.01,31.69
23062192,1902,1,197757,237441,1.25,-0.79,9.91,-0.03,-0.01,-0.00,31.69
23102197,1927,1,198022,237804,1.25,-0.77,9.92,-0.03,-0.01,-0.00,31.69
23142192,1921,1,198071,238143,1.25,-0.78,9.90,-0.03,-0.01,-0.00,31.69
23182194,1923,1,198183,238349,1.26,-0.76,9.91,-0.03,-0.01,-0.00,31.69
23222193,1911,1,198176,238555,1.23,-0.77,9.91,-0.03,-0.01,-0.00,31.69
23262197,1883,1,198353,238772,1.23,-0.77,9.93,-0.03,-0.01,-0.00,31.69
23302192,1933,1,198375,239073,1.26,-0.76,9.91,-0.03,-0.01,-0.00,31.69
23342197,1909,1,198560,239559,1.24,-0.77,9.92,-0.03,-0.01,-0.00,31.69
23382193,1904,1,198735,239500,1.26,-0.78,9.91,-0.03,-0.01,-0.01,31.69
23422197,1879,1,198493,238235,1.24,-0.77,9.92,-0.03,-0.01,-0.00,31.69
23462878,1853,1,198320,237824,1.25,-0.75,9.92,-0.03,-0.01,-0.00,31.83
23501196,1932,1,198356,238019,1.24,-0.78,9.91,-0.04,-0.01,-0.00,31.83
23541196,1885,1,198454,238274,1.24,-0.77,9.91,-0.03,-0.01,-0.00,31.83
23581196,1881,1,198551,238491,1.25,-0.76,9.92,-0.03,-0.01,-0.00,31.83
23621196,1897,1,198665,238828,1.23,-0.77,9.92,-0.03,-0.01,-0.00,31.83
23661196,1906,1,198698,238751,1.24,-0.76,9.91,-0.03,-0.01,-0.00,31.83
23701196,1916,1,198712,238768,1.25,-0.75,9.92,-0.03,-0.01,-0.00,31.83
23741197,1915,1,198650,238844,1.26,-0.79,9.90,-0.03,-0.01,-0.00,31.83
23781196,1909,1,198763,239158,1.23,-0.79,9.92,-0.03,-0.01,-0.00,31.83
23821218,1926,1,198930,239447,1.24,-0.75,9.91,-0.03,-0.01,-0.00,31.83
23861196,1931,1,199017,239724,1.26,-0.77,9.88,-0.03,-0.01,-0.00,31.83
23901196,1899,1,199114,240033,1.22,-0.76,9.85,-0.03,-0.01,-0.01,31.83
23941196,1929,1,199183,240324,1.27,-0.77,9.92,-0.03,-0.01,-0.00,31.83
23981196,1906,1,199275,240527,1.25,-0.76,9.90,-0.03,-0.01,-0.00,31.83
24021225,1929,1,199303,240884,1.24,-0.77,9.93,-0.03,-0.01,-0.00,31.83
24061197,1889,1,199395,240663,1.25,-0.78,9.90,-0.03,-0.01,-0.00,31.83
24101197,1898,1,198938,238825,1.26,-0.77,9.89,-0.03,-0.01,-0.00,31.83
24141197,1898,1,198454,237920,1.23,-0.78,9.90,-0.03,-0.01,-0.00,31.83
24181196,1897,1,198211,237720,1.24,-0.76,9.92,-0.03,-0.01,-0.00,31.83
24221196,1869,1,198114,237554,1.25,-0.75,9.90,-0.03,-0.01,-0.00,31.83
24261194,1910,1,197902,237134,1.26,-0.78,9.91,-0.03,0.00,-0.00,31.83
24301177,1908,1,197699,236865,1.25,-0.75,9.92,-0.02,0.00,-0.00,31.83
24341176,1926,1,197558,236618,1.23,-0.76,9.92,-0.03,0.00,-0.00,31.83
24381177,1905,1,197539,236673,1.23,-0.75,9.92,-0.03,-0.01,-0.00,31.83
24421196,1904,1,197548,236903,1.25,-0.77,9.91,-0.03,-0.01,-0.00,31.83
24461197,1898,1,197681,237242,1.23,-0.77,9.91,-0.04,-0.01,-0.00,31.83
24501883,1898,1,197846,237607,1.25,-0.78,9.90,-0.03,-0.01,-0.00,31.75
24540196,1951,1,197955,238005,1.23,-0.77,9.93,-0.03,-0.01,-0.00,31.75
24580196,1955,1,198067,238189,1.23,-0.77,9.90,-0.03,-0.01,-0.00,31.75
24620196,1936,1,198168,238539,1.26,-0.77,9.92,-0.03,-0.01,-0.00,31.75
24660196,1967,1,198309,238950,1.24,-0.77,9.90,-0.03,-0.01,-0.01,31.75
24700196,1933,1,198505,239391,1.26,-0.76,9.92,-0.03,-0.01,-0.00,31.75
24740196,1913,1,198754,239832,1.24,-0.76,9.90,-0.03,-0.01,-0.00,31.75
24780196,1926,1,198882,240033,1.24,-0.76,9.91,-0.03,-0.01,-0.00,31.75
24820196,1937,1,198903,239079,1.25,-0.76,9.90,-0.03,-0.01,-0.00,31.75
24860196,1904,1,198375,237684,1.24,-0.77,9.91,-0.03,-0.01,-0.00,31.75
24900196,1929,1,198073,237329,1.23,-0.77,9.91,-0.03,-0.01,-0.00,31.75
24940196,1968,1,197948,237104,1.24,-0.77,9.92,-0.04,-0.01,-0.00,31.75
24980196,1923,1,197862,236979,1.23,-0.76,9.91,-0.03,-0.01,-0.00,31.75
25020196,1929,1,197733,236726,1.25,-0.76,9.90,-0.03,-0.01,-0.00,31.75
25060196,1922,1,197622,236720,1.24,-0.77,9.89,-0.03,-0.01,-0.00,31.75
25100196,1935,1,197633,236812,1.24,-0.75,9.92,-0.03,-0.01,-0.00,31.75
25140196,1931,1,197823,237211,1.25,-0.75,9.89,-0.03,-0.01,-0.00,31.75
25180196,1935,1,198122,237830,1.24,-0.76,9.92,-0.04,-0.01,-0.00,31.75
25220196,1949,1,198417,238599,1.24,-0.77,9.93,-0.04,-0.01,-0.00,31.75
25260196,1938,1,198664,238940,1.22,-0.78,9.93,-0.03,-0.01,-0.00,31.75
25300196,1920,1,198790,239046,1.24,-0.79,9.91,-0.03,-0.01,-0.00,31.75
25340196,1931,1,198652,238978,1.24,-0.78,9.92,-0.03,-0.01,-0.00,31.75
25380197,1917,1,198591,239108,1.24,-0.76,9.90,-0.03,-0.01,-0.00,31.75
25420196,1936,1,198596,239251,1.27,-0.77,9.90,-0.03,-0.01,-0.00,31.75
25460237,1908,1,198604,239500,1.25,-0.76,9.92,-0.03,-0.01,-0.00,31.75
25500197,1915,1,198653,239762,1.25,-0.78,9.90,-0.03,-0.01,-0.00,31.75
25540882,1886,1,198520,239127,1.24,-0.77,9.90,-0.03,-0.01,-0.00,31.67
25581197,1923,1,197834,237001,1.26,-0.77,9.95,-0.03,-0.02,-0.00,31.67
25621197,1917,1,197141,235991,1.27,-0.77,9.90,-0.03,-0.01,-0.00,31.67
25661209,1903,1,196905,235824,1.26,-0.76,9.92,-0.03,-0.01,-0.00,31.67
25701197,1897,1,196899,236052,1.24,-0.74,9.91,-0.03,-0.01,-0.00,31.67
25741197,1916,1,196944,236205,1.23,-0.76,9.94,-0.03,-0.01,-0.00,31.67
25781193,1901,1,196968,236471,1.24,-0.77,9.88,-0.03,-0.01,-0.00,31.67
25821197,1893,1,197079,236763,1.24,-0.77,9.90,-0.03,-0.01,-0.00,31.67
25861193,1941,1,197286,237505,1.23,-0.76,9.90,-0.04,-0.02,-0.00,31.67
25901194,1930,1,197682,238358,1.25,-0.77,9.89,-0.04,-0.02,-0.01,31.67
25941193,1921,1,198001,239114,1.26,-0.76,9.89,-0.04,-0.02,-0.00,31.67
25981197,1887,1,198356,239800,1.26,-0.79,9.90,-0.04,-0.01,-0.01,31.67
26021207,1882,1,198550,240182,1.27,-0.78,9.90,-0.03,-0.01,-0.00,31.67
26061194,1905,1,198703,240381,1.27,-0.79,9.92,-0.03,-0.01,-0.00,31.67
26101193,1915,1,198724,240536,1.28,-0.77,9.93,-0.03,-0.01,-0.01,31.67
26141197,1936,1,198742,240590,1.25,-0.79,9.92,-0.03,-0.01,-0.00,31.67
26181193,1927,1,198791,240766,1.26,-0.79,9.92,-0.03,-0.01,-0.00,31.67
26221197,1904,1,198888,240853,1.26,-0.77,9.93,-0.03,-0.01,-0.00,31.67
26261192,1911,1,198726,239618,1.25,-0.76,9.90,-0.03,-0.01,-0.00,31.67
26301197,1904,1,198098,238285,1.24,-0.78,9.92,-0.03,-0.01,-0.00,31.67
26341193,1858,1,197921,238323,1.28,-0.79,9.91,-0.03,-0.01,-0.01,31.67
26381197,1894,1,198134,238632,1.25,-0.79,9.92,-0.03,-0.01,-0.00,31.67
26421193,1905,1,198209,238838,1.26,-0.77,9.89,-0.03,-0.01,-0.00,31.67
26459196,1967,1,198223,239065,1.25,-0.78,9.92,-0.03,-0.01,-0.00,31.67
26499196,1995,1,198278,239407,1.24,-0.79,9.88,-0.03,-0.01,-0.00,31.67
26539196,1973,1,198307,239280,1.24,-0.78,9.91,-0.03,-0.01,-0.00,31.67
26579882,1901,1,198214,239085,1.24,-0.74,9.91,-0.03,-0.01,-0.00,31.55
26620196,1930,1,198334,239529,1.25,-0.74,9.91,-0.04,-0.01,-0.00,31.55
26660196,1893,1,198593,240161,1.27,-0.78,9.89,-0.03,-0.01,-0.00,31.55
26700196,1913,1,198749,240338,1.27,-0.79,9.93,-0.03,-0.01,-0.00,31.55
26740196,1904,1,198731,240296,1.25,-0.77,9.92,-0.03,-0.01,-0.00,31.55
26780196,1902,1,198683,240431,1.25,-0.76,9.90,-0.03,-0.01,-0.00,31.55
26820194,1904,1,198766,240616,1.26,-0.77,9.93,-0.03,-0.01,-0.00,31.55
26860196,1936,1,198886,240729,1.26,-0.78,9.95,-0.04,-0.01,-0.00,31.55
26900197,1899,1,198868,239984,1.27,-0.79,9.90,-0.03,-0.01,-0.00,31.55
26940196,1922,1,198241,238099,1.24,-0.75,9.90,-0.03,-0.01,-0.00,31.55
26980197,1950,1,197895,237553,1.26,-0.76,9.91,-0.03,-0.01,-0.00,31.55
27020196,1917,1,197757,237515,1.27,-0.78,9.91,-0.03,-0.01,-0.00,31.55
27060197,1947,1,197662,237403,1.26,-0.78,9.93,-0.03,-0.01,-0.00,31.55
27100204,1915,1,197469,237219,1.25,-0.77,9.93,-0.03,-0.01,-0.00,31.55
27140196,1872,1,197589,237437,1.26,-0.76,9.91,-0.03,-0.01,-0.00,31.55
27180196,1922,1,197607,237470,1.24,-0.77,9.87,-0.03,-0.01,-0.00,31.55
27220196,1915,1,197527,237278,1.24,-0.77,9.92,-0.03,-0.01,-0.00,31.55
27260196,1895,1,197514,237404,1.24,-0.75,9.90,-0.03,-0.01,-0.01,31.55
27300227,1889,1,197643,237649,1.27,-0.76,9.91,-0.03,-0.01,-0.00,31.55
27340196,1911,1,197689,237820,1.26,-0.79,9.90,-0.03,-0.01,-0.00,31.55
27380196,1877,1,197587,237779,1.25,-0.78,9.92,-0.03,-0.01,-0.00,31.55
27420196,1922,1,197640,237978,1.25,-0.77,9.90,-0.03,-0.00,-0.00,31.55
27460196,1889,1,197627,238110,1.24,-0.76,9.92,-0.03,-0.01,-0.01,31.55
27500217,1904,1,197829,238381,1.25,-0.75,9.93,-0.04,-0.01,-0.00,31.55
27540196,1920,1,197692,238328,1.24,-0.77,9.90,-0.03,-0.01,-0.00,31.55
27580883,1894,1,197635,237465,1.23,-0.76,9.92,-0.03,-0.01,-0.01,31.63
27619196,1923,1,196976,235919,1.24,-0.79,9.93,-0.03,-0.01,-0.00,31.63
27659196,1966,1,196566,235131,1.26,-0.77,9.90,-0.03,-0.01,-0.00,31.63
27699196,1961,1,196245,234649,1.25,-0.75,9.92,-0.03,-0.00,-0.00,31.63
27739196,1938,1,196153,234556,1.23,-0.76,9.91,-0.03,-0.01,-0.00,31.63
27779196,1955,1,196241,234850,1.24,-0.77,9.92,-0.03,-0.01,-0.00,31.63
27819196,1955,1,196382,235285,1.25,-0.78,9.88,-0.03,-0.01,-0.00,31.63
27859196,1937,1,196535,235563,1.22,-0.75,9.91,-0.03,-0.01,-0.00,31.63
27899196,1917,1,196653,235798,1.24,-0.77,9.92,-0.04,-0.01,-0.01,31.63
27939196,1914,1,196826,236214,1.25,-0.76,9.92,-0.04,-0.01,-0.01,31.63
27979197,1927,1,197034,236754,1.24,-0.75,9.92,-0.04,-0.01,-0.00,31.63
28019196,1924,1,197107,237110,1.25,-0.77,9.90,-0.03,-0.01,-0.00,31.63
28059196,1911,1,197347,237449,1.24,-0.77,9.93,-0.03,-0.01,-0.00,31.63
28099196,1906,1,197359,237564,1.24,-0.77,9.90,-0.03,-0.01,-0.00,31.63
28139196,1936,1,197382,237708,1.25,-0.76,9.91,-0.03,-0.01,-0.00,31.63
28179196,1952,1,197378,237673,1.24,-0.74,9.91,-0.03,-0.01,-0.00,31.63
28219196,1935,1,197394,237356,1.26,-0.76,9.95,-0.03,-0.01,-0.00,31.63
28259196,1946,1,197090,236232,1.25,-0.79,9.89,-0.03,-0.01,-0.00,31.63
28299196,1934,1,196719,235699,1.25,-0.76,9.93,-0.03,-0.01,-0.00,31.63
28339196,1961,1,196765,235924,1.24,-0.76,9.92,-0.03,-0.01,-0.00,31.63
28379196,1953,1,196793,236080,1.23,-0.76,9.91,-0.04,-0.01,-0.00,31.63
28419196,1959,1,196892,236427,1.26,-0.75,9.93,-0.03,-0.01,-0.00,31.63
28459197,1936,1,197095,236741,1.25,-0.76,9.92,-0.03,-0.01,-0.00,31.63
28499196,1959,1,197316,236967,1.27,-0.78,9.90,-0.03,-0.01,-0.00,31.63
28539196,1930,1,197462,237248,1.26,-0.77,9.92,-0.03,-0.01,-0.00,31.63
28579196,1920,1,197564,237536,1.25,-0.76,9.91,-0.04,-0.01,-0.00,31.63
28619883,1904,1,197656,237800,1.24,-0.76,9.90,-0.04,-0.01,-0.00,31.81
28660197,1904,1,197730,237905,1.25,-0.76,9.90,-0.03,-0.01,-0.00,31.81
28700197,1940,1,197655,237881,1.27,-0.77,9.90,-0.03,-0.01,-0.00,31.81
28740197,1902,1,197667,238110,1.24,-0.75,9.89,-0.03,-0.01,-0.00,31.81
28780197,1921,1,197675,238467,1.23,-0.77,9.89,-0.03,-0.01,-0.00,31.81
28820197,1915,1,197922,238998,1.24,-0.76,9.92,-0.03,-0.01,-0.00,31.81
28860197,1936,1,198223,239540,1.26,-0.77,9.88,-0.03,-0.01,-0.01,31.81
28900197,1919,1,198236,238358,1.23,-0.77,9.90,-0.04,-0.01,-0.00,31.81
28940197,1909,1,197973,237987,1.27,-0.75,9.92,-0.04,-0.01,-0.00,31.81
28980196,1911,1,198021,238426,1.26,-0.75,9.92,-0.03,-0.01,-0.00,31.81
29020197,1937,1,198388,239026,1.26,-0.76,9.90,-0.04,-0.01,-0.01,31.81
29060197,1927,1,198633,239587,1.26,-0.79,9.92,-0.03,-0.01,-0.00,31.81
29100197,1922,1,198931,240291,1.24,-0.75,9.93,-0.04,-0.01,-0.00,31.81
29140196,1903,1,199211,240618,1.26,-0.78,9.91,-0.04,-0.01,-0.00,31.81
29180197,1852,1,199334,240517,1.25,-0.78,9.89,-0.04,-0.02,-0.00,31.81
29220197,1901,1,199228,240645,1.26,-0.77,9.87,-0.03,-0.01,-0.00,31.81
29260197,1870,1,199203,240722,1.26,-0.77,9.91,-0.03,-0.01,-0.00,31.81
29300196,1897,1,199114,240636,1.26,-0.79,9.90,-0.03,-0.01,-0.01,31.81
29340197,1887,1,199084,240870,1.26,-0.77,9.91,-0.03,-0.01,-0.00,31.81
29380197,1866,1,199158,241243,1.25,-0.78,9.94,-0.03,-0.01,-0.00,31.81
29420197,1909,1,199359,241469,1.26,-0.77,9.90,-0.03,-0.01,-0.00,31.81
29460197,1886,1,199547,241913,1.25,-0.78,9.91,-0.03,-0.01,-0.00,31.81
29500197,1901,1,199795,242133,1.26,-0.77,9.93,-0.03,-0.01,-0.00,31.81
29540193,1879,1,199657,240745,1.25,-0.77,9.91,-0.03,-0.01,-0.00,31.81
29580197,1894,1,199207,239922,1.24,-0.78,9.92,-0.03,-0.01,-0.01,31.81
29620884,1849,1,199174,239918,1.27,-0.76,9.93,-0.03,-0.01,-0.00,31.95
29659197,1939,1,199257,240100,1.27,-0.79,9.89,-0.03,-0.01,-0.00,31.95
29699197,1910,1,199170,240212,1.27,-0.77,9.89,-0.03,-0.01,-0.00,31.95
29739196,1904,1,199251,240454,1.27,-0.75,9.92,-0.03,-0.01,-0.00,31.95
29779197,1931,1,199177,240242,1.25,-0.76,9.93,-0.03,-0.01,-0.00,31.95
29819197,1881,1,199132,240112,1.25,-0.78,9.91,-0.03,-0.01,-0.00,31.95
29859197,1871,1,198937,239864,1.24,-0.77,9.89,-0.03,-0.01,-0.01,31.95
29899197,1903,1,198878,239802,1.27,-0.78,9.89,-0.03,-0.01,-0.00,31.95
29939196,1921,1,198705,239641,1.27,-0.77,9.92,-0.03,-0.01,-0.00,31.95
29980197,1891,1,198641,239814,1.23,-0.78,9.90,-0.03,-0.01,-0.00,31.95
30020192,1884,1,198773,239977,1.26,-0.77,9.91,-0.03,-0.01,-0.00,31.95
30058196,1990,1,198771,239844,1.26,-0.78,9.89,-0.03,-0.01,-0.00,31.95
30098196,1972,1,198575,239596,1.24,-0.77,9.91,-0.03,-0.01,-0.00,31.95
30138196,1982,1,198261,239248,1.24,-0.77,9.92,-0.03,-0.01,-0.00,31.95
30178196,1995,1,198066,237931,1.25,-0.76,9.90,-0.03,-0.01,-0.00,31.95
30218196,1958,1,197566,237196,1.25,-0.79,9.89,-0.03,-0.01,-0.00,31.95
30258196,1985,1,197947,238244,1.25,-0.78,9.92,-0.04,-0.00,-0.01,31.95
30298196,1974,1,198433,238718,1.24,-0.78,9.90,-0.04,-0.01,-0.01,31.95
30338196,2004,1,198414,238596,1.24,-0.78,9.93,-0.03,-0.02,-0.00,31.95
30378196,1983,1,198287,238283,1.24,-0.79,9.92,-0.03,-0.02,-0.00,31.95
30418196,1979,1,198094,238005,1.26,-0.77,9.89,-0.03,-0.01,-0.00,31.95
30458196,1941,1,197849,237585,1.27,-0.78,9.88,-0.03,-0.01,-0.00,31.95
30498196,1951,1,197602,237392,1.22,-0.77,9.90,-0.03,-0.01,-0.00,31.95
30538195,1974,1,197529,237446,1.25,-0.75,9.90,-0.03,-0.01,-0.00,31.95
30578210,1949,1,197461,237506,1.27,-0.77,9.89,-0.03,-0.01,-0.00,31.95
30618196,1955,1,197368,237257,1.25,-0.78,9.91,-0.03,-0.01,-0.00,31.95
30658883,1905,1,197304,237139,1.26,-0.78,9.90,-0.03,-0.01,-0.00,31.77
30699197,1923,1,197205,237033,1.26,-0.78,9.92,-0.03,-0.01,-0.00,31.77
30739197,1917,1,197125,237095,1.26,-0.77,9.92,-0.03,-0.01,-0.00,31.77
30779215,1904,1,197096,237188,1.25,-0.77,9.90,-0.03,-0.01,-0.01,31.77
30819197,1903,1,197212,237162,1.26,-0.78,9.91,-0.03,-0.01,-0.00,31.77
30859197,1898,1,196997,236384,1.27,-0.77,9.90,-0.03,-0.01,-0.00,31.77
30899194,1943,1,196741,235987,1.25,-0.77,9.90,-0.03,-0.01,-0.00,31.77
30939197,1927,1,196980,236600,1.25,-0.75,9.90,-0.04,-0.01,-0.00,31.77
30979194,1931,1,197355,237317,1.24,-0.77,9.92,-0.04,-0.01,-0.00,31.77
31018196,1986,1,197713,237617,1.25,-0.78,9.88,-0.04,-0.01,-0.00,31.77
31058196,1968,1,197655,237535,1.27,-0.76,9.91,-0.03,-0.02,-0.00,31.77
31098196,1953,1,197337,236930,1.25,-0.79,9.91,-0.04,-0.02,-0.00,31.77
31138196,1963,1,196803,236146,1.26,-0.78,9.91,-0.04,-0.03,-0.00,31.77
31178196,1931,1,196707,236350,1.30,-0.78,9.88,-0.03,-0.01,-0.00,31.77
31218193,1981,1,196740,236624,1.28,-0.79,9.92,-0.03,-0.01,-0.00,31.77
31258196,1947,1,197030,237173,1.25,-0.80,9.90,-0.03,-0.01,-0.00,31.77
31298192,1942,1,197303,237691,1.27,-0.77,9.92,-0.03,-0.01,-0.00,31.77
31338196,1953,1,197555,238031,1.28,-0.77,9.90,-0.03,-0.01,-0.00,31.77
31378194,1971,1,197623,238154,1.27,-0.79,9.91,-0.03,-0.01,-0.00,31.77
31418196,1940,1,197536,238003,1.25,-0.78,9.88,-0.03,-0.01,-0.00,31.77
31458196,1921,1,197570,238144,1.26,-0.79,9.91,-0.03,-0.01,-0.00,31.77
31498196,1925,1,197570,238282,1.27,-0.77,9.90,-0.03,-0.01,-0.00,31.77
31538196,1936,1,197488,237296,1.27,-0.78,9.90,-0.03,-0.01,-0.00,31.77
31578196,1920,1,197055,236280,1.25,-0.75,9.92,-0.03,-0.01,-0.00,31.77
31618196,1945,1,196802,235983,1.28,-0.77,9.92,-0.03,-0.01,-0.00,31.77
31658882,1907,1,196674,235864,1.27,-0.77,9.92,-0.03,-0.01,-0.00,31.81
31699196,1911,1,196587,235626,1.25,-0.77,9.90,-0.03,-0.01,-0.00,31.81
31739197,1879,1,196591,235672,1.25,-0.79,9.90,-0.03,-0.01,-0.00,31.81
31779198,1879,1,196563,235714,1.26,-0.76,9.90,-0.03,-0.01,-0.00,31.81
31819197,1884,1,196454,235712,1.26,-0.76,9.91,-0.03,-0.01,-0.00,31.81
31859197,1887,1,196521,235772,1.28,-0.76,9.91,-0.03,-0.01,-0.00,31.81
31899197,1923,1,196518,235960,1.26,-0.78,9.89,-0.04,-0.01,-0.00,31.81
31939197,1908,1,196698,236513,1.27,-0.79,9.92,-0.04,-0.02,-0.00,31.81
31979197,1927,1,196986,237529,1.30,-0.78,9.89,-0.04,-0.02,-0.00,31.81
32018193,1936,1,197666,238683,1.27,-0.79,9.92,-0.04,-0.01,-0.01,31.81
32058197,1982,1,198182,239524,1.26,-0.76,9.91,-0.04,-0.01,-0.00,31.81
32098196,1915,1,198513,240120,1.27,-0.76,9.89,-0.03,-0.01,-0.00,31.81
32138196,1946,1,198777,240428,1.26,-0.77,9.89,-0.03,-0.01,-0.00,31.81
32178197,1930,1,198678,240089,1.27,-0.79,9.91,-0.03,-0.01,-0.00,31.81
32218227,1915,1,198107,238139,1.27,-0.78,9.92,-0.03,-0.01,-0.00,31.81
32258197,1937,1,197671,237350,1.28,-0.77,9.90,-0.03,-0.01,-0.00,31.81
32298197,1961,1,197371,236897,1.26,-0.79,9.90,-0.03,-0.01,-0.00,31.81
32338196,1926,1,196844,236354,1.27,-0.79,9.93,-0.03,-0.01,-0.00,31.81
32378196,1918,1,196605,236049,1.28,-0.77,9.89,-0.03,-0.01,-0.00,31.81
32418232,1871,1,196490,235991,1.27,-0.77,9.87,-0.03,-0.01,-0.00,31.81
32458197,1909,1,196340,235849,1.25,-0.78,9.90,-0.03,-0.01,-0.00,31.81
32498193,1905,1,196418,236136,1.29,-0.79,9.87,-0.03,-0.01,-0.00,31.81
32538197,1891,1,196660,236587,1.25,-0.77,9.91,-0.04,-0.01,-0.00,31.81
32578196,1921,1,196925,237246,1.25,-0.78,9.92,-0.03,-0.01,-0.00,31.81
32618197,1900,1,197324,238126,1.27,-0.79,9.92,-0.03,-0.01,-0.00,31.81
32658882,1879,1,197688,239077,1.28,-0.75,9.88,-0.03,-0.01,-0.00,31.57
32697196,1975,1,198124,239964,1.27,-0.78,9.90,-0.03,-0.01,-0.01,31.57
32737196,1981,1,198556,240509,1.26,-0.78,9.94,-0.03,-0.01,-0.00,31.57
32777196,1981,1,198641,240502,1.23,-0.78,9.92,-0.03,-0.01,-0.00,31.57
32817196,1971,1,198540,240437,1.26,-0.76,9.91,-0.03,-0.01,-0.00,31.57
32857196,1963,1,198540,240652,1.27,-0.80,9.90,-0.03,-0.01,-0.00,31.57
32897193,1969,1,198601,240568,1.25,-0.78,9.91,-0.03,-0.01,-0.00,31.57
32937196,1968,1,198357,238566,1.24,-0.77,9.89,-0.03,-0.01,-0.00,31.57
32977196,1967,1,197553,237330,1.23,-0.78,9.92,-0.03,-0.01,-0.00,31.57
33017196,1936,1,197269,236903,1.25,-0.77,9.91,-0.03,-0.01,-0.00,31.57
33058196,1907,1,197308,237043,1.27,-0.75,9.90,-0.03,-0.01,-0.00,31.57
33098196,1933,1,197341,237210,1.26,-0.78,9.91,-0.04,-0.01,-0.00,31.57
33138196,1894,1,197292,237375,1.27,-0.78,9.90,-0.03,-0.01,-0.00,31.57
33178197,1900,1,197510,237789,1.27,-0.78,9.90,-0.03,-0.01,-0.00,31.57
33218196,1919,1,197539,237791,1.25,-0.78,9.91,-0.03,-0.01,-0.00,31.57
33258197,1905,1,197445,237808,1.26,-0.79,9.91,-0.03,-0.01,-0.00,31.57
33298196,1872,1,197557,238097,1.25,-0.78,9.90,-0.03,-0.01,-0.00,31.57
33338196,1906,1,197649,238347,1.25,-0.76,9.89,-0.03,-0.01,-0.00,31.57
33378196,1925,1,197835,238815,1.26,-0.78,9.91,-0.03,-0.01,-0.00,31.57
33418196,1918,1,198070,239318,1.26,-0.76,9.93,-0.03,-0.01,-0.01,31.57
33458197,1934,1,198284,239908,1.25,-0.76,9.91,-0.03,-0.01,-0.00,31.57
33498196,1938,1,198625,240447,1.25,-0.77,9.91,-0.03,-0.01,-0.00,31.57
33538197,1891,1,198851,240878,1.26,-0.77,9.90,-0.03,-0.01,-0.00,31.57
33578197,1909,1,198894,241025,1.25,-0.79,9.91,-0.03,-0.01,-0.00,31.57
33618197,1887,1,198871,241024,1.24,-0.76,9.90,-0.03,-0.01,-0.00,31.57
33658884,1872,1,198700,240834,1.24,-0.78,9.92,-0.03,-0.01,-0.00,31.35
33697196,1908,1,198478,240700,1.25,-0.77,9.89,-0.03,-0.01,-0.00,31.35
33737196,1933,1,198317,239492,1.25,-0.76,9.94,-0.03,-0.01,-0.00,31.35
33777196,1935,1,197765,238264,1.26,-0.78,9.91,-0.03,-0.01,-0.01,31.35
33817196,1949,1,197577,238081,1.26,-0.78,9.90,-0.04,-0.01,-0.00,31.35
33857238,1902,1,197647,238223,1.24,-0.77,9.90,-0.03,-0.01,-0.00,31.35
33897196,1903,1,197734,238241,1.27,-0.78,9.91,-0.03,-0.01,-0.00,31.35
33937195,1936,1,197702,238269,1.27,-0.77,9.91,-0.03,-0.01,-0.01,31.35
33977196,1925,1,197685,238518,1.25,-0.75,9.89,-0.03,-0.01,-0.00,31.35
34017196,1930,1,197679,238711,1.27,-0.76,9.90,-0.03,-0.01,-0.00,31.35
34057226,1926,1,197756,238673,1.26,-0.77,9.90,-0.03,-0.01,-0.00,31.35
34097195,1948,1,197805,238820,1.28,-0.78,9.93,-0.03,-0.01,-0.00,31.35
34137196,1938,1,197901,239129,1.25,-0.79,9.90,-0.03,-0.01,-0.00,31.35
34177193,1950,1,197947,239320,1.24,-0.79,9.92,-0.03,-0.01,-0.00,31.35
34217196,1997,1,198112,239571,1.27,-0.79,9.91,-0.03,-0.01,-0.00,31.35
34257196,1969,1,198069,239722,1.25,-0.79,9.89,-0.03,-0.01,-0.00,31.35
34297196,1943,1,198247,239836,1.25,-0.78,9.90,-0.03,-0.01,-0.00,31.35
34337196,1920,1,198219,239880,1.26,-0.76,9.90,-0.03,-0.01,-0.00,31.35
34377196,1927,1,198270,239748,1.24,-0.79,9.92,-0.03,-0.01,-0.00,31.35
34417196,1942,1,198094,239526,1.24,-0.77,9.91,-0.03,-0.01,-0.00,31.35
34457196,1925,1,197867,239466,1.26,-0.75,9.91,-0.03,-0.01,-0.00,31.35
34497196,1950,1,197961,239370,1.24,-0.78,9.91,-0.03,-0.01,-0.00,31.35
34537196,1943,1,197736,238396,1.25,-0.77,9.90,-0.03,-0.01,-0.00,31.35
34577196,1937,1,197085,236814,1.24,-0.79,9.90,-0.03,-0.01,-0.00,31.35
34617196,1904,1,196615,236244,1.26,-0.77,9.92,-0.03,-0.01,-0.00,31.35
34657196,1913,1,196532,236105,1.24,-0.76,9.92,-0.03,-0.01,-0.00,31.35
34697883,1878,1,196603,236367,1.25,-0.79,9.89,-0.03,-0.01,-0.00,31.47
34738197,1909,1,196716,236689,1.24,-0.79,9.90,-0.03,-0.01,-0.00,31.47
34778197,1934,1,196915,237172,1.26,-0.79,9.91,-0.04,-0.01,-0.00,31.47
34818197,1927,1,197059,237339,1.28,-0.79,9.91,-0.03,-0.01,-0.00,31.47
34858197,1918,1,197007,237425,1.24,-0.79,9.93,-0.03,-0.01,-0.00,31.47
34898197,1917,1,197065,237682,1.26,-0.76,9.91,-0.03,-0.01,-0.00,31.47
34938197,1852,1,197198,238134,1.27,-0.78,9.91,-0.03,-0.01,-0.00,31.47
34978196,1918,1,197420,238705,1.26,-0.77,9.91,-0.03,-0.01,-0.00,31.47
35018197,1917,1,197742,239130,1.25,-0.75,9.91,-0.03,-0.01,-0.00,31.47
35058197,1911,1,197701,239361,1.24,-0.76,9.90,-0.03,-0.01,-0.00,31.47
35098197,1916,1,197729,239491,1.24,-0.78,9.92,-0.03,-0.01,-0.00,31.47
35138196,1905,1,197731,239540,1.26,-0.77,9.88,-0.03,-0.01,-0.00,31.47
35178197,1939,1,197743,239638,1.26,-0.77,9.93,-0.03,-0.01,-0.00,31.47
35218197,1918,1,197703,239697,1.26,-0.77,9.90,-0.03,-0.01,-0.00,31.47
35258196,1894,1,197599,238745,1.27,-0.76,9.90,-0.03,-0.01,-0.00,31.47
35298197,1895,1,197066,237283,1.26,-0.76,9.93,-0.03,-0.01,-0.00,31.47
35338197,1906,1,196720,236777,1.26,-0.76,9.90,-0.03,-0.01,-0.00,31.47
35378193,1904,1,196556,236627,1.26,-0.76,9.90,-0.03,-0.01,-0.00,31.47
35418194,1893,1,196474,236587,1.27,-0.79,9.85,-0.03,-0.01,-0.00,31.47
35458192,1936,1,196535,236894,1.26,-0.76,9.90,-0.03,-0.01,-0.00,31.47
35498194,1905,1,196800,237443,1.26,-0.76,9.90,-0.03,-0.01,-0.00,31.47
35538197,1904,1,197016,237951,1.25,-0.77,9.88,-0.03,-0.01,-0.00,31.47
35578197,1855,1,197284,238359,1.24,-0.77,9.90,-0.04,-0.01,-0.00,31.47
35618192,1857,1,197447,238815,1.26,-0.77,9.90,-0.04,-0.01,-0.00,31.47
35658194,1875,1,197661,239206,1.25,-0.77,9.91,-0.03,-0.01,-0.00,31.47
35698907,1851,1,197685,239031,1.25,-0.79,9.91,-0.03,-0.01,-0.00,31.43
35737196,1897,1,197478,238812,1.27,-0.75,9.90,-0.03,-0.02,-0.00,31.43
35777193,1875,1,197464,239156,1.27,-0.76,9.90,-0.03,-0.01,-0.00,31.43
35817197,1911,1,197762,239660,1.25,-0.77,9.91,-0.03,-0.01,-0.00,31.43
35857196,1905,1,198093,240372,1.25,-0.77,9.90,-0.04,-0.01,-0.00,31.43
35897215,1883,1,198460,241208,1.27,-0.78,9.89,-0.03,-0.01,-0.01,31.43
35937197,1921,1,198921,242004,1.26,-0.77,9.92,-0.03,-0.01,-0.00,31.43
35977196,1909,1,199183,242195,1.25,-0.77,9.90,-0.03,-0.01,-0.00,31.43
36017197,1891,1,199112,240660,1.25,-0.76,9.90,-0.03,-0.01,-0.00,31.43
36057196,1907,1,198773,240050,1.26,-0.75,9.92,-0.03,-0.01,-0.00,31.43
36097196,1937,1,198806,240211,1.26,-0.78,9.91,-0.03,-0.01,-0.00,31.43
36137196,1888,1,198855,240626,1.26,-0.76,9.90,-0.03,-0.01,-0.00,31.43
36177194,1900,1,199055,240940,1.28,-0.78,9.92,-0.03,-0.01,-0.00,31.43
36217197,1890,1,199125,241214,1.25,-0.78,9.90,-0.03,-0.01,-0.00,31.43
36257194,1842,1,199232,241312,1.25,-0.78,9.93,-0.03,-0.01,-0.00,31.43
36297197,1975,1,199146,241263,1.26,-0.76,9.91,-0.03,-0.01,-0.00,31.43
36337196,1903,1,199109,241444,1.26,-0.77,9.90,-0.03,-0.01,-0.00,31.43
36377197,1857,1,199213,241865,1.25,-0.76,9.90,-0.03,-0.01,-0.00,31.43
36417197,1932,1,199527,242476,1.26,-0.77,9.91,-0.04,-0.01,-0.00,31.43
36457197,1919,1,199837,242949,1.25,-0.78,9.91,-0.04,-0.01,-0.00,31.43
36497196,2063,1,199976,243229,1.26,-0.78,9.90,-0.03,-0.01,-0.01,31.43
36537196,1914,1,200027,243569,1.23,-0.76,9.90,-0.03,-0.01,-0.00,31.43
36577197,1898,1,200184,243816,1.28,-0.77,9.89,-0.04,-0.01,-0.00,31.43
36617196,1909,1,200285,243849,1.27,-0.78,9.92,-0.03,-0.01,-0.00,31.43
36657196,2003,1,200143,243898,1.26,-0.79,9.91,-0.03,-0.01,-0.00,31.43
36697197,1934,1,200035,243882,1.26,-0.78,9.90,-0.03,-0.02,-0.00,31.43
36737880,1878,1,199956,243219,1.25,-0.75,9.86,-0.03,-0.01,-0.00,31.55
36776196,1923,1,199360,241226,1.25,-0.77,9.90,-0.03,-0.01,-0.00,31.55
36816196,1915,1,198830,240689,1.25,-0.78,9.92,-0.03,-0.01,-0.00,31.55
36856196,1949,1,198729,240810,1.26,-0.78,9.93,-0.03,-0.01,-0.01,31.55
36896196,1911,1,198647,240770,1.24,-0.78,9.92,-0.03,-0.01,-0.00,31.55
36936196,1958,1,198720,241205,1.27,-0.78,9.90,-0.03,-0.01,-0.00,31.55
36976196,1918,1,198920,241670,1.28,-0.75,9.90,-0.03,-0.01,-0.00,31.55
37016196,1939,1,199042,241899,1.25,-0.79,9.90,-0.03,-0.01,-0.00,31.55
37056196,1953,1,199134,242039,1.24,-0.76,9.91,-0.03,-0.01,-0.00,31.55
37096196,1962,1,199256,242243,1.27,-0.76,9.93,-0.03,-0.01,-0.00,31.55
37136199,1913,1,199489,242887,1.29,-0.77,9.93,-0.03,-0.01,-0.00,31.55
37176196,1918,1,199780,243387,1.23,-0.79,9.92,-0.03,-0.01,-0.00,31.55
37216196,1946,1,199980,243880,1.25,-0.75,9.91,-0.04,-0.01,-0.00,31.55
37256197,1955,1,200260,244061,1.29,-0.77,9.91,-0.03,-0.01,-0.00,31.55
37296197,1920,1,200286,244259,1.24,-0.77,9.90,-0.03,-0.01,-0.00,31.55
37336215,1954,1,200302,244078,1.24,-0.76,9.90,-0.03,-0.01,-0.00,31.55
37376197,1964,1,200146,243906,1.30,-0.77,9.89,-0.03,-0.01,-0.00,31.55
37416197,1965,1,199997,243753,1.23,-0.82,9.88,-0.03,-0.01,-0.00,31.55
37456197,1951,1,199865,242505,1.27,-0.77,9.90,-0.03,-0.01,-0.00,31.55
37496197,1935,1,199166,240824,1.30,-0.75,9.91,-0.03,-0.01,-0.00,31.55
37536213,1920,1,198924,240638,1.25,-0.77,9.91,-0.03,-0.01,-0.00,31.55
37576197,1904,1,199007,241043,1.22,-0.78,9.90,-0.03,-0.01,-0.00,31.55
37616194,1938,1,199213,241564,1.28,-0.74,9.89,-0.04,-0.01,-0.00,31.55
37656197,1926,1,199434,242409,1.25,-0.76,9.92,-0.03,-0.01,-0.00,31.55
37696197,1904,1,199915,243062,1.22,-0.75,9.89,-0.03,-0.01,-0.00,31.55
37736197,1939,1,199965,243260,1.28,-0.80,9.91,-0.04,-0.01,-0.00,31.55
37776884,1868,1,200006,243147,1.28,-0.76,9.88,-0.03,-0.01,-0.00,31.55
37817197,1914,1,199907,243014,1.23,-0.77,9.90,-0.03,-0.01,-0.00,31.55
37857197,1911,1,199760,242867,1.27,-0.78,9.90,-0.03,-0.01,-0.00,31.55
37897197,1890,1,199616,242539,1.31,-0.74,9.90,-0.03,-0.01,-0.00,31.55
37937197,1904,1,199350,242479,1.25,-0.79,9.88,-0.03,-0.01,-0.00,31.55
37977197,1899,1,199244,242311,1.22,-0.78,9.92,-0.03,-0.01,-0.00,31.55
38017197,1890,1,199139,242290,1.27,-0.74,9.91,-0.03,-0.01,-0.00,31.55
38057197,1910,1,199100,242560,1.25,-0.78,9.92,-0.03,-0.01,-0.00,31.55
38097197,1881,1,199055,242752,1.25,-0.77,9.89,-0.03,-0.01,-0.00,31.55
38137197,1878,1,199150,242424,1.27,-0.77,9.91,-0.03,-0.01,-0.00,31.55
38177197,1851,1,198760,240358,1.28,-0.78,9.90,-0.03,-0.01,-0.00,31.55
38217197,1891,1,198142,239578,1.26,-0.77,9.90,-0.03,-0.01,-0.00,31.55
38257197,1839,1,197999,239526,1.28,-0.79,9.90,-0.03,-0.01,-0.00,31.55
38297197,1872,1,197964,239391,1.27,-0.75,9.90,-0.03,-0.01,-0.00,31.55
38337197,1879,1,197897,239198,1.24,-0.79,9.92,-0.03,-0.01,-0.00,31.55
38377197,1863,1,197756,239307,1.27,-0.77,9.92,-0.03,-0.01,-0.00,31.55
38417197,1897,1,197691,239279,1.28,-0.76,9.90,-0.03,-0.01,-0.00,31.55
38457197,1941,1,197692,239344,1.27,-0.77,9.91,-0.03,-0.01,-0.00,31.55
38497197,1884,1,197802,239638,1.24,-0.77,9.91,-0.03,-0.01,-0.00,31.55
38537197,1922,1,198028,240149,1.28,-0.76,9.90,-0.04,-0.01,-0.01,31.55
38577197,1930,1,198288,240947,1.25,-0.77,9.93,-0.03,-0.01,-0.00,31.55
38615197,1995,1,198593,241512,1.24,-0.76,9.91,-0.03,-0.01,-0.00,31.55
38655197,1952,1,198819,241996,1.26,-0.76,9.92,-0.04,-0.01,-0.00,31.55
38695197,2003,1,199026,242241,1.28,-0.79,9.89,-0.04,-0.01,-0.00,31.55
38735197,1968,1,199159,242476,1.28,-0.76,9.92,-0.03,-0.01,-0.00,31.55
38775197,1959,1,199159,242712,1.25,-0.79,9.93,-0.03,-0.01,-0.00,31.55
38815883,1882,1,199254,242660,1.26,-0.76,9.90,-0.03,-0.01,-0.00,31.49
38856197,1904,1,199216,241772,1.27,-0.78,9.89,-0.03,-0.01,-0.00,31.49
38896197,1899,1,198553,239694,1.26,-0.79,9.90,-0.03,-0.01,-0.00,31.49
38936196,1879,1,198103,239212,1.27,-0.77,9.92,-0.03,-0.01,-0.00,31.49
38976223,1907,1,198171,239246,1.25,-0.78,9.87,-0.03,-0.01,-0.00,31.49
39016197,1906,1,198152,239347,1.26,-0.77,9.92,-0.03,-0.01,-0.00,31.49
39056197,1893,1,198207,239534,1.28,-0.78,9.88,-0.03,-0.01,-0.00,31.49
39096197,1941,1,198309,239996,1.25,-0.77,9.90,-0.03,-0.01,-0.00,31.49
39136195,1921,1,198417,240191,1.26,-0.76,9.92,-0.03,-0.01,-0.00,31.49
39176221,1919,1,198377,240012,1.25,-0.78,9.90,-0.03,-0.01,-0.00,31.49
39216197,1935,1,198216,239753,1.27,-0.77,9.91,-0.03,-0.01,-0.00,31.49
39256197,1952,1,198001,239408,1.25,-0.77,9.91,-0.03,-0.01,-0.00,31.49
39296197,1949,1,197878,239495,1.27,-0.77,9.89,-0.03,-0.01,-0.00,31.49
39336197,1953,1,197928,239482,1.25,-0.79,9.91,-0.03,-0.01,-0.00,31.49
39376197,1951,1,197736,239486,1.25,-0.78,9.92,-0.03,-0.01,-0.00,31.49
39416197,1923,1,197755,239483,1.25,-0.78,9.90,-0.03,-0.01,-0.00,31.49
39456197,1915,1,197692,239742,1.27,-0.75,9.91,-0.03,-0.01,-0.00,31.49
39496197,1887,1,197846,239939,1.26,-0.80,9.91,-0.03,-0.01,-0.00,31.49
39536194,1921,1,197834,240432,1.25,-0.79,9.90,-0.03,-0.01,-0.00,31.49
39576197,1923,1,198073,240415,1.28,-0.74,9.92,-0.03,-0.01,-0.00,31.49
39616197,1903,1,197740,238746,1.26,-0.78,9.92,-0.03,-0.01,-0.00,31.49
39656197,1917,1,197438,238505,1.26,-0.77,9.93,-0.03,-0.01,-0.00,31.49
39696197,1902,1,197552,238711,1.26,-0.76,9.89,-0.03,-0.01,-0.00,31.49
39736197,1876,1,197640,239080,1.26,-0.76,9.92,-0.03,-0.01,-0.00,31.49
39776197,1888,1,197833,239532,1.27,-0.77,9.93,-0.04,-0.01,-0.00,31.49
39816883,1909,1,198023,240105,1.26,-0.79,9.92,-0.03,-0.01,-0.00,31.57
39855197,1930,1,198297,240456,1.26,-0.77,9.90,-0.03,-0.01,-0.00,31.57
39895197,1966,1,198412,240627,1.25,-0.77,9.91,-0.03,-0.01,-0.00,31.57
39935197,1953,1,198445,241044,1.26,-0.77,9.92,-0.03,-0.01,-0.00,31.57
39975197,1931,1,198623,241495,1.27,-0.77,9.91,-0.03,-0.01,-0.00,31.57
40015197,1904,1,198814,241808,1.25,-0.79,9.91,-0.03,-0.01,-0.00,31.57
40055197,1904,1,198971,242006,1.24,-0.77,9.91,-0.03,-0.01,-0.00,31.57
40095197,1911,1,198977,242179,1.27,-0.77,9.90,-0.03,-0.01,-0.00,31.57
40135197,1883,1,199044,242311,1.28,-0.78,9.92,-0.03,-0.01,-0.00,31.57
40175197,1915,1,199068,242432,1.24,-0.78,9.89,-0.03,-0.01,-0.00,31.57
40215197,1890,1,199044,242608,1.26,-0.76,9.92,-0.03,-0.01,-0.00,31.57
40255197,1929,1,199153,242603,1.28,-0.77,9.90,-0.03,-0.01,-0.00,31.57
40295197,1936,1,199092,242166,1.25,-0.77,9.90,-0.03,-0.01,-0.00,31.57
40335195,1943,1,198619,240045,1.29,-0.78,9.93,-0.03,-0.01,-0.00,31.57
40375197,1946,1,198082,239190,1.25,-0.75,9.92,-0.03,-0.00,-0.00,31.57
40415197,1967,1,197935,239109,1.26,-0.77,9.91,-0.03,0.00,-0.00,31.57
40455176,1958,1,197930,239236,1.27,-0.78,9.90,-0.03,-0.00,-0.00,31.57
40495194,1943,1,197975,239299,1.28,-0.75,9.90,-0.03,-0.01,-0.00,31.57
40535197,1967,1,197918,239482,1.25,-0.75,9.91,-0.03,-0.01,-0.00,31.57
40575197,1968,1,197919,239528,1.25,-0.77,9.91,-0.03,-0.01,-0.00,31.57
40615243,1962,1,197937,239247,1.26,-0.77,9.90,-0.03,-0.01,-0.00,31.57
40655197,1943,1,197702,239043,1.24,-0.77,9.90,-0.03,-0.01,-0.00,31.57
40695196,1930,1,197577,239037,1.26,-0.78,9.92,-0.03,-0.01,-0.00,31.57
40735197,1925,1,197544,239003,1.25,-0.75,9.89,-0.03,-0.01,-0.00,31.57
40775197,1905,1,197430,239007,1.27,-0.75,9.93,-0.03,-0.01,-0.01,31.57
40815243,1939,1,197474,238966,1.26,-0.78,9.92,-0.03,-0.01,-0.00,31.57
40855883,1887,1,197368,239313,1.25,-0.76,9.88,-0.03,-0.01,-0.00,31.57
40896197,1875,1,197621,239964,1.26,-0.78,9.92,-0.03,-0.01,-0.00,31.57
40936197,1894,1,197882,240484,1.25,-0.78,9.90,-0.03,-0.01,-0.01,31.57
40976198,1895,1,197915,240347,1.25,-0.75,9.90,-0.04,-0.01,-0.00,31.57
41016197,1874,1,197699,239246,1.26,-0.76,9.92,-0.04,-0.01,-0.00,31.57
41056196,1897,1,197440,238949,1.24,-0.78,9.91,-0.03,-0.01,-0.00,31.57
41096197,1890,1,197433,238595,1.24,-0.77,9.92,-0.04,-0.01,-0.00,31.57
41136197,1907,1,197118,238127,1.27,-0.78,9.91,-0.03,-0.01,-0.00,31.57
41176197,1907,1,196886,237994,1.25,-0.76,9.91,-0.03,-0.01,-0.00,31.57
41216197,1902,1,196937,238025,1.25,-0.77,9.90,-0.03,-0.01,-0.00,31.57
41256197,1943,1,196960,238084,1.26,-0.77,9.89,-0.03,-0.01,-0.00,31.57
41296197,1899,1,196854,238166,1.27,-0.75,9.92,-0.03,-0.01,-0.00,31.57
41336197,1913,1,196940,238248,1.25,-0.77,9.91,-0.03,-0.01,-0.00,31.57
41376197,1901,1,196964,238451,1.27,-0.76,9.89,-0.03,-0.01,-0.00,31.57
41416197,1879,1,197064,238661,1.25,-0.76,9.93,-0.03,-0.01,-0.00,31.57
41456197,1870,1,197199,238855,1.27,-0.78,9.90,-0.03,-0.01,-0.00,31.57
41496197,1865,1,197341,239147,1.26,-0.76,9.91,-0.03,-0.01,-0.00,31.57
41534197,1964,1,197459,239701,1.25,-0.77,9.90,-0.04,-0.01,-0.00,31.57
41574197,1974,1,197724,240334,1.27,-0.79,9.90,-0.04,-0.01,-0.00,31.57
41614197,1969,1,197982,240652,1.25,-0.76,9.91,-0.04,-0.01,-0.00,31.57
41654197,1951,1,197888,239439,1.24,-0.75,9.92,-0.03,-0.01,-0.01,31.57
41694196,1978,1,197348,238243,1.26,-0.78,9.90,-0.03,-0.01,-0.01,31.57
41734196,1995,1,197103,237866,1.24,-0.77,9.93,-0.03,-0.01,-0.01,31.57
41774196,2005,1,197099,238118,1.26,-0.79,9.90,-0.04,-0.01,-0.00,31.57
41814197,2000,1,197275,238259,1.25,-0.76,9.90,-0.03,-0.01,-0.00,31.57
41854196,2000,1,197374,238470,1.26,-0.78,9.90,-0.03,-0.01,-0.00,31.57
41894882,1963,1,197479,238827,1.24,-0.78,9.93,-0.03,-0.01,-0.00,31.55
41935197,1935,1,197622,238990,1.27,-0.77,9.92,-0.03,-0.01,-0.01,31.55
41975197,1915,1,197662,238945,1.25,-0.77,9.90,-0.03,-0.01,-0.00,31.55
42015197,1903,1,197601,239098,1.24,-0.79,9.90,-0.03,-0.01,-0.01,31.55
42055197,1937,1,197556,239230,1.27,-0.78,9.91,-0.04,-0.02,-0.00,31.55
42095197,1876,1,197545,239172,1.27,-0.76,9.91,-0.03,-0.01,-0.00,31.55
42135196,1922,1,197395,239361,1.27,-0.78,9.91,-0.03,-0.01,-0.00,31.55
42175197,1894,1,197472,239513,1.27,-0.79,9.90,-0.03,-0.01,-0.00,31.55
42215196,1936,1,197510,239755,1.24,-0.77,9.92,-0.03,-0.01,-0.01,31.55
42255203,1909,1,197496,239819,1.28,-0.79,9.91,-0.03,-0.01,-0.00,31.55
42295196,1913,1,197545,239866,1.25,-0.76,9.90,-0.03,-0.01,-0.00,31.55
42335197,1920,1,197378,238163,1.25,-0.77,9.91,-0.03,-0.01,-0.01,31.55
42375197,1930,1,196801,236924,1.26,-0.78,9.91,-0.03,-0.01,-0.00,31.55
42415196,1920,1,196572,236758,1.25,-0.76,9.91,-0.03,-0.01,-0.00,31.55
42455227,1938,1,196619,236848,1.24,-0.78,9.92,-0.03,-0.01,-0.00,31.55
42495197,1936,1,196614,236914,1.25,-0.78,9.90,-0.03,-0.01,-0.00,31.55
42535197,1942,1,196664,237075,1.26,-0.76,9.89,-0.03,-0.01,-0.00,31.55
42575197,1929,1,196643,237295,1.26,-0.77,9.93,-0.03,-0.01,-0.00,31.55
42615197,1887,1,196702,237330,1.28,-0.75,9.89,-0.03,-0.01,-0.00,31.55
42655221,1904,1,196632,237255,1.25,-0.78,9.91,-0.03,-0.01,-0.00,31.55
42695197,1915,1,196627,237351,1.28,-0.77,9.92,-0.03,-0.01,-0.00,31.55
42735197,1910,1,196724,237704,1.26,-0.78,9.89,-0.03,-0.01,-0.00,31.55
42775197,1900,1,196910,238170,1.28,-0.78,9.89,-0.03,-0.01,-0.00,31.55
42815197,1911,1,197032,238489,1.27,-0.79,9.90,-0.03,-0.01,-0.00,31.55
42855196,1885,1,197230,238831,1.27,-0.77,9.89,-0.03,-0.01,-0.00,31.55
42895884,1865,1,197236,239298,1.28,-0.78,9.93,-0.03,-0.01,-0.00,31.57
42934196,1923,1,197447,239553,1.26,-0.78,9.91,-0.03,-0.01,-0.00,31.57
42974195,1918,1,197519,240018,1.24,-0.78,9.88,-0.03,-0.01,-0.00,31.57
43014196,1952,1,197783,240316,1.26,-0.77,9.90,-0.03,-0.01,-0.00,31.57
43054196,1925,1,197784,239356,1.26,-0.79,9.90,-0.03,-0.01,-0.00,31.57
43095196,1922,1,197121,237464,1.26,-0.78,9.89,-0.03,-0.01,-0.00,31.57
43135197,1904,1,196789,236967,1.26,-0.76,9.92,-0.03,-0.01,-0.00,31.57
43175197,1900,1,196566,236873,1.24,-0.76,9.91,-0.03,-0.01,-0.00,31.57
43215197,1911,1,196510,236605,1.26,-0.80,9.90,-0.03,-0.01,-0.00,31.57
43255197,1884,1,196355,236668,1.25,-0.75,9.90,-0.03,-0.01,-0.00,31.57
43295194,1894,1,196343,236982,1.27,-0.76,9.92,-0.03,-0.01,-0.00,31.57
43335197,1883,1,196590,237129,1.25,-0.79,9.90,-0.03,-0.01,-0.00,31.57
43375197,1915,1,196639,237422,1.26,-0.77,9.87,-0.03,-0.01,-0.00,31.57
43415197,1888,1,196811,237846,1.26,-0.78,9.90,-0.03,-0.01,-0.00,31.57
43455197,1889,1,197062,238504,1.25,-0.79,9.91,-0.03,-0.01,-0.00,31.57
43495197,1907,1,197300,238891,1.26,-0.78,9.92,-0.03,-0.01,-0.00,31.57
43535197,1899,1,197519,239147,1.26,-0.78,9.90,-0.03,-0.01,-0.00,31.57
43575197,1872,1,197589,239307,1.27,-0.78,9.90,-0.03,-0.01,-0.00,31.57
43615197,1866,1,197650,239522,1.26,-0.78,9.89,-0.03,-0.01,-0.00,31.57
43655197,1901,1,197783,239607,1.25,-0.77,9.90,-0.03,-0.01,-0.01,31.57
43695198,1956,1,197730,239256,1.27,-0.78,9.90,-0.03,-0.00,-0.00,31.57
43735197,1974,1,197257,238089,1.23,-0.77,9.93,-0.02,-0.00,-0.00,31.57
43775197,1963,1,196638,237148,1.24,-0.76,9.94,-0.02,-0.01,-0.00,31.57
43815197,2110,1,196174,235610,1.23,-0.75,9.97,-0.03,-0.00,-0.00,31.57
43855197,1975,1,195344,234032,1.26,-0.76,9.86,-0.03,-0.00,-0.00,31.57
43895883,1954,1,195395,233695,1.22,-0.71,9.91,-0.04,-0.00,-0.01,31.61
43934197,1937,1,195906,235063,1.24,-0.70,9.94,-0.05,-0.01,-0.01,31.61
43974196,1907,1,196624,235376,1.19,-0.78,9.94,-0.03,0.00,-0.01,31.61
44014176,1840,1,196742,235671,1.22,-0.76,9.93,-0.03,-0.01,-0.00,31.61
44054196,1882,1,197022,236495,1.23,-0.76,9.89,-0.03,-0.00,-0.00,31.61
44095192,1857,1,197267,236779,1.24,-0.76,9.90,-0.03,-0.00,-0.01,31.61
44135197,1865,1,197359,237003,1.21,-0.76,9.91,-0.03,-0.01,-0.00,31.61
44175192,1819,1,197378,237037,1.22,-0.76,9.93,-0.03,-0.00,-0.01,31.61
44215197,1808,1,197506,237971,1.24,-0.74,9.88,-0.03,-0.01,-0.00,31.61
44255193,1857,1,198269,239551,1.16,-0.72,10.01,-0.05,-0.03,-0.01,31.61
44295197,1893,1,198259,239723,1.26,-0.79,9.82,-0.04,-0.04,-0.00,31.61
44335192,1900,1,198279,240081,1.30,-0.80,9.90,-0.03,-0.01,-0.00,31.61
44375193,1914,1,198550,241123,1.25,-0.79,9.90,-0.04,-0.01,-0.00,31.61
44415192,1971,1,199192,242739,1.19,-0.75,9.92,-0.05,-0.03,-0.01,31.61
44455197,1968,1,199899,243717,1.27,-0.77,9.92,-0.07,-0.05,-0.01,31.61
44495193,1923,1,200045,244008,1.31,-0.80,9.87,-0.05,-0.03,-0.01,31.61
44535197,1872,1,199997,243794,1.26,-0.79,9.90,-0.03,-0.01,-0.01,31.61
44575193,1920,1,199606,241790,1.27,-0.77,9.93,-0.04,-0.03,-0.00,31.61
44615197,1911,1,198767,239621,1.30,-0.79,9.89,-0.05,-0.05,-0.00,31.61
44655192,1895,1,197990,238753,1.31,-0.82,9.90,-0.04,-0.03,-0.00,31.61
44695194,1915,1,197737,238633,1.33,-0.82,9.88,-0.04,-0.02,-0.00,31.61
44735193,1929,1,197660,238378,1.33,-0.76,9.91,-0.03,-0.01,-0.00,31.61
44775197,1947,1,197513,238456,1.31,-0.79,9.92,-0.03,-0.01,-0.00,31.61
44815193,1937,1,197500,238729,1.30,-0.82,9.88,-0.03,-0.01,-0.00,31.61
44855194,1937,1,197463,238639,1.33,-0.81,9.90,-0.03,-0.01,-0.00,31.61
44895193,1955,1,197383,238651,1.30,-0.80,9.93,-0.03,-0.01,-0.01,31.61
44935880,1949,1,197527,238796,1.31,-0.82,9.90,-0.03,-0.01,-0.00,31.43
44974197,1971,1,197566,238908,1.32,-0.81,9.89,-0.03,-0.01,-0.00,31.43
45014196,1968,1,197572,238975,1.32,-0.81,9.89,-0.03,-0.01,-0.00,31.43
45054196,1941,1,197511,238975,1.30,-0.81,9.89,-0.03,-0.01,-0.00,31.43
45094196,1925,1,197350,238779,1.30,-0.79,9.90,-0.03,-0.01,-0.00,31.43
45133193,1941,1,197075,238604,1.31,-0.78,9.88,-0.04,-0.02,-0.00,31.43
45173196,1941,1,197044,238527,1.32,-0.82,9.90,-0.04,-0.02,-0.00,31.43
45213196,1939,1,197019,238441,1.30,-0.80,9.92,-0.04,-0.03,-0.00,31.43
45253196,1936,1,196952,237630,1.35,-0.80,9.87,-0.05,-0.03,-0.00,31.43
45293193,1891,1,196409,236128,1.33,-0.84,9.88,-0.04,-0.01,-0.00,31.43
45333196,1909,1,196204,235817,1.33,-0.82,9.93,-0.04,-0.01,-0.01,31.43
45373196,1955,1,196339,236173,1.34,-0.80,9.89,-0.03,-0.01,-0.00,31.43
45413196,1951,1,196526,236425,1.31,-0.79,9.90,-0.03,-0.01,-0.00,31.43
45453197,1929,1,196588,236638,1.31,-0.80,9.91,-0.03,-0.00,-0.00,31.43
45493196,1938,1,196726,236996,1.33,-0.80,9.89,-0.03,-0.01,-0.01,31.43
45533196,1961,1,196783,237134,1.33,-0.80,9.93,-0.03,-0.01,-0.00,31.43
45573195,1932,1,196803,237039,1.31,-0.81,9.89,-0.03,-0.01,-0.00,31.43
45613196,1938,1,196684,237212,1.31,-0.82,9.90,-0.03,-0.01,-0.00,31.43
45653195,1935,1,196714,237214,1.33,-0.80,9.91,-0.03,-0.01,-0.00,31.43
45693196,1929,1,196704,237301,1.32,-0.80,9.85,-0.03,-0.01,-0.00,31.43
45733224,1937,1,196660,237277,1.31,-0.80,9.91,-0.03,-0.01,-0.00,31.43
45773196,1894,1,196600,237362,1.31,-0.79,9.90,-0.03,-0.01,-0.00,31.43
45813196,1891,1,196601,237395,1.32,-0.80,9.85,-0.03,-0.01,-0.00,31.43
45853195,1883,1,196572,237487,1.30,-0.82,9.87,-0.03,-0.00,-0.00,31.43
45893196,1902,1,196694,237673,1.32,-0.79,9.88,-0.03,-0.01,-0.00,31.43
45933203,1899,1,196638,237600,1.31,-0.79,9.91,-0.04,-0.02,-0.00,31.43
45973882,1840,1,196298,235957,1.31,-0.80,9.90,-0.03,-0.01,-0.00,31.19
46014193,1851,1,195806,235082,1.33,-0.80,9.94,-0.03,-0.01,-0.00,31.19
46054196,1872,1,195609,234908,1.32,-0.79,9.89,-0.03,-0.01,-0.00,31.19
46094197,1881,1,195494,234878,1.30,-0.79,9.91,-0.03,-0.01,-0.00,31.19
46134197,1847,1,195403,234952,1.32,-0.81,9.89,-0.03,-0.01,-0.00,31.19
46173195,1933,1,195419,235293,1.31,-0.77,9.89,-0.04,-0.01,-0.00,31.19
46213196,1970,1,195571,235689,1.31,-0.82,9.88,-0.03,-0.01,-0.00,31.19
46253196,1954,1,195706,235837,1.32,-0.83,9.90,-0.03,-0.01,-0.00,31.19
46293196,1943,1,195774,236083,1.30,-0.81,9.89,-0.03,-0.01,-0.00,31.19
46333196,1931,1,195907,236364,1.31,-0.79,9.89,-0.03,-0.01,-0.00,31.19
46373196,1953,1,195949,236644,1.30,-0.79,9.90,-0.03,-0.01,-0.00,31.19
46413193,1956,1,195971,236996,1.32,-0.80,9.90,-0.03,-0.01,-0.00,31.19
46453196,1930,1,196167,237409,1.31,-0.79,9.89,-0.03,-0.01,-0.00,31.19
46493196,1932,1,196360,237803,1.30,-0.79,9.90,-0.03,-0.01,-0.00,31.19
46533196,1931,1,196451,238031,1.30,-0.79,9.88,-0.03,-0.01,-0.00,31.19
46573193,1905,1,196533,238231,1.33,-0.81,9.90,-0.03,-0.01,-0.00,31.19
46613195,1928,1,196567,238411,1.31,-0.81,9.92,-0.03,-0.01,-0.00,31.19
46653196,1894,1,196573,237973,1.32,-0.79,9.90,-0.03,-0.01,-0.00,31.19
46693196,1906,1,196075,235924,1.31,-0.79,9.88,-0.03,-0.01,-0.00,31.19
46733196,1920,1,195606,235279,1.31,-0.79,9.91,-0.03,-0.01,-0.00,31.19
46773196,1945,1,195509,235105,1.32,-0.81,9.90,-0.03,-0.01,-0.00,31.19
46813196,1936,1,195438,235097,1.31,-0.80,9.90,-0.03,-0.01,-0.00,31.19
46853196,1917,1,195474,235165,1.32,-0.81,9.90,-0.03,-0.01,-0.00,31.19
46893193,1953,1,195514,235380,1.31,-0.81,9.88,-0.03,-0.01,-0.00,31.19
46933196,1959,1,195620,235556,1.32,-0.80,9.91,-0.03,-0.01,-0.00,31.19
46973196,1928,1,195646,235535,1.32,-0.79,9.89,-0.03,-0.01,-0.00,31.19
47013883,1893,1,195578,235471,1.29,-0.80,9.88,-0.03,-0.01,-0.00,31.27
47054192,1888,1,195564,235669,1.32,-0.80,9.89,-0.03,-0.01,-0.00,31.27
47094194,1886,1,195607,235777,1.33,-0.79,9.89,-0.03,-0.01,-0.00,31.27
47134193,1884,1,195704,235882,1.31,-0.80,9.92,-0.03,-0.01,-0.00,31.27
47173196,1930,1,195777,236049,1.31,-0.81,9.89,-0.04,-0.01,-0.00,31.27
47213196,1920,1,195794,236163,1.31,-0.79,9.90,-0.03,-0.01,-0.00,31.27
47253196,1940,1,195851,236207,1.31,-0.81,9.90,-0.03,-0.01,-0.00,31.27
47293196,1946,1,195869,236451,1.31,-0.82,9.91,-0.03,-0.01,-0.01,31.27
47333195,1936,1,195935,236532,1.30,-0.80,9.87,-0.03,-0.01,-0.00,31.27
47373232,1963,1,195888,236611,1.31,-0.80,9.87,-0.03,-0.01,-0.00,31.27
47413196,1942,1,195787,235438,1.29,-0.80,9.89,-0.03,-0.01,-0.00,31.27
47453196,1949,1,195266,234273,1.31,-0.82,9.90,-0.03,-0.01,-0.00,31.27
47493196,1936,1,194970,234028,1.31,-0.80,9.90,-0.03,-0.01,-0.00,31.27
47533193,1920,1,194937,234073,1.30,-0.80,9.91,-0.03,-0.01,-0.00,31.27
47573234,1930,1,194937,234072,1.28,-0.80,9.90,-0.03,-0.01,-0.00,31.27
47613194,1959,1,194995,234146,1.32,-0.80,9.91,-0.03,-0.01,-0.00,31.27
47653196,1977,1,195086,234431,1.33,-0.79,9.87,-0.03,-0.01,-0.00,31.27
47693196,1927,1,195074,234642,1.31,-0.81,9.91,-0.03,-0.01,-0.00,31.27
47733196,1957,1,195184,234873,1.32,-0.82,9.89,-0.04,-0.01,-0.00,31.27
47773196,1916,1,195256,235120,1.31,-0.80,9.88,-0.03,-0.01,-0.00,31.27
47813196,1939,1,195370,235471,1.31,-0.81,9.88,-0.03,-0.01,-0.00,31.27
47853196,1936,1,195402,235800,1.29,-0.79,9.88,-0.03,-0.01,-0.00,31.27
47893196,1923,1,195518,236126,1.32,-0.81,9.89,-0.03,-0.01,-0.00,31.27
47933196,1923,1,195611,236406,1.30,-0.82,9.87,-0.03,-0.01,-0.00,31.27
47973196,1938,1,195715,236646,1.30,-0.82,9.89,-0.03,-0.01,-0.00,31.27
48013880,1907,1,195661,236810,1.32,-0.81,9.92,-0.03,-0.01,-0.00,31.27
48054197,1903,1,195711,236959,1.32,-0.80,9.90,-0.03,-0.01,-0.00,31.27
48094192,1909,1,195787,237282,1.30,-0.81,9.88,-0.03,-0.01,-0.01,31.27
48134197,1902,1,195773,236393,1.32,-0.79,9.91,-0.03,-0.01,-0.00,31.27
48174193,1920,1,195299,234794,1.31,-0.80,9.89,-0.03,-0.01,-0.00,31.27
48213196,1923,1,194977,234301,1.34,-0.82,9.90,-0.03,-0.01,-0.00,31.27
48253196,1939,1,194886,234232,1.31,-0.82,9.88,-0.03,-0.00,-0.00,31.27
48293196,1927,1,194864,234323,1.31,-0.79,9.89,-0.04,-0.01,-0.00,31.27
48333197,1911,1,194899,234281,1.32,-0.80,9.89,-0.03,-0.01,-0.00,31.27
48373196,1887,1,194963,234619,1.29,-0.80,9.90,-0.03,-0.01,-0.00,31.27
48413193,1891,1,195097,234749,1.28,-0.79,9.90,-0.03,-0.01,-0.00,31.27
48453197,1909,1,195075,234742,1.30,-0.80,9.91,-0.03,-0.01,-0.00,31.27
48493193,1904,1,195065,234912,1.30,-0.80,9.87,-0.03,-0.01,-0.00,31.27
48533196,1932,1,195241,235153,1.31,-0.80,9.90,-0.04,-0.01,-0.00,31.27
48573194,1919,1,195260,235405,1.32,-0.80,9.89,-0.03,-0.01,-0.00,31.27
48613197,1874,1,195405,235803,1.31,-0.81,9.90,-0.04,-0.01,-0.00,31.27
48653197,1948,1,195558,236289,1.31,-0.83,9.90,-0.04,-0.02,-0.00,31.27
48693197,1933,1,195758,236862,1.30,-0.79,9.89,-0.04,-0.01,-0.00,31.27
48733197,1908,1,195924,237245,1.31,-0.83,9.90,-0.03,-0.01,-0.00,31.27
48773197,1909,1,196129,237699,1.28,-0.80,9.91,-0.03,-0.01,-0.00,31.27
48813197,1927,1,196254,238034,1.30,-0.80,9.89,-0.03,-0.01,-0.00,31.27
48853197,1916,1,196145,236322,1.30,-0.80,9.89,-0.03,-0.01,-0.00,31.27
48893194,1889,1,195422,235017,1.30,-0.80,9.90,-0.03,-0.01,-0.00,31.27
48933197,1933,1,195198,234792,1.29,-0.78,9.88,-0.03,-0.01,-0.00,31.27
48973197,1911,1,195186,234925,1.31,-0.79,9.88,-0.03,-0.01,-0.00,31.27
49013896,1867,1,195160,234942,1.30,-0.80,9.90,-0.03,-0.01,-0.00,31.35
49052193,1927,1,195154,235013,1.29,-0.77,9.88,-0.03,-0.01,-0.00,31.35
49092196,1920,1,195217,235141,1.30,-0.80,9.91,-0.03,-0.00,-0.00,31.35
49132193,1947,1,195140,235053,1.28,-0.79,9.90,-0.03,-0.01,-0.00,31.35
49172196,1922,1,195127,234971,1.30,-0.79,9.92,-0.04,-0.01,-0.00,31.35
49212232,1970,1,195162,235025,1.31,-0.79,9.90,-0.03,-0.01,-0.00,31.35
49252196,1968,1,195189,235438,1.31,-0.77,9.89,-0.04,-0.01,-0.00,31.35
49292197,1962,1,195340,235755,1.32,-0.81,9.90,-0.04,-0.02,-0.00,31.35
49332196,1963,1,195443,236150,1.30,-0.79,9.92,-0.03,-0.01,-0.00,31.35
49372196,1982,1,195553,236585,1.32,-0.80,9.90,-0.04,-0.01,-0.00,31.35
49412196,1967,1,195699,236931,1.29,-0.79,9.90,-0.03,-0.01,-0.00,31.35
49452196,1943,1,195692,237201,1.30,-0.79,9.90,-0.03,-0.01,-0.00,31.35
49492196,1968,1,195865,237511,1.33,-0.80,9.90,-0.03,-0.01,-0.00,31.35
49532193,1947,1,195844,236821,1.32,-0.78,9.90,-0.03,-0.01,-0.00,31.35
49572196,1991,1,195226,234773,1.30,-0.79,9.91,-0.03,-0.01,-0.00,31.35
49612196,1926,1,194661,233943,1.29,-0.79,9.87,-0.03,-0.01,-0.00,31.35
49652196,1902,1,194504,233764,1.31,-0.79,9.91,-0.03,-0.01,-0.00,31.35
49692196,1895,1,194541,233651,1.29,-0.78,9.91,-0.03,-0.00,-0.00,31.35
49732196,1903,1,194491,233522,1.30,-0.80,9.89,-0.03,-0.01,-0.01,31.35
49772196,1931,1,194435,233682,1.31,-0.79,9.87,-0.03,-0.01,-0.00,31.35
49812196,1903,1,194553,233820,1.32,-0.82,9.90,-0.03,-0.01,-0.00,31.35
49852196,1905,1,194565,233825,1.30,-0.80,9.88,-0.03,-0.01,-0.00,31.35
49892196,1924,1,194614,233932,1.32,-0.79,9.91,-0.04,-0.02,-0.00,31.35
49932196,1928,1,194644,234279,1.31,-0.80,9.87,-0.04,-0.01,-0.00,31.35
49972196,1904,1,194875,234834,1.29,-0.80,9.90,-0.04,-0.01,-0.00,31.35
50012194,1905,1,195027,235346,1.30,-0.79,9.91,-0.04,-0.01,-0.00,31.35
50052883,1839,1,195262,235992,1.29,-0.79,9.91,-0.04,-0.01,-0.00,31.33
50093193,1920,1,195502,236425,1.29,-0.82,9.92,-0.03,-0.01,-0.00,31.33
50133197,1921,1,195580,236394,1.30,-0.81,9.85,-0.03,-0.00,-0.00,31.33
50173192,1943,1,195416,235492,1.30,-0.79,9.90,-0.02,0.01,-0.00,31.33
50213174,2042,1,194834,234150,1.27,-0.81,9.94,-0.01,0.01,-0.00,31.33
50253177,2132,1,194231,232987,1.23,-0.75,9.90,0.02,0.06,0.00,31.33
50293147,3781,1,193973,233107,1.27,-0.59,9.89,-0.04,0.01,-0.01,31.33
50333177,2034,1,194949,232898,1.18,-0.79,10.07,-0.04,-0.00,-0.01,31.33
50373194,1730,1,194955,232698,1.21,-0.79,9.89,-0.03,-0.01,-0.00,31.33
50413197,1673,1,195001,232839,1.27,-0.77,9.90,-0.03,-0.01,-0.00,31.33
50453197,1648,1,195078,233034,1.26,-0.77,9.90,-0.03,-0.01,-0.00,31.33
50493192,1682,1,195239,233823,1.24,-0.79,9.90,-0.03,-0.01,-0.00,31.33
50533194,1865,1,195754,234627,1.25,-0.78,9.90,-0.03,-0.01,-0.01,31.33
50573192,1859,1,196122,235236,1.26,-0.77,9.90,-0.03,-0.00,-0.01,31.33
50613193,1905,1,196507,235686,1.22,-0.78,9.89,-0.04,-0.01,-0.01,31.33
50653193,1986,1,196600,235829,1.23,-0.77,9.90,-0.03,-0.01,-0.00,31.33
50693197,1958,1,196678,236095,1.25,-0.74,9.92,-0.03,-0.01,-0.00,31.33
50733193,1951,1,196714,236356,1.24,-0.78,9.93,-0.04,-0.02,-0.00,31.33
50773197,1851,1,196840,236657,1.23,-0.81,9.92,-0.04,-0.02,-0.00,31.33
50813193,1979,1,196994,237276,1.26,-0.76,9.92,-0.04,-0.02,-0.00,31.33
50853200,1904,1,197355,238187,1.25,-0.76,9.92,-0.04,-0.01,-0.00,31.33
50893197,1703,1,197637,238757,1.21,-0.78,9.90,-0.04,-0.02,-0.01,31.33
50933197,1586,1,197794,238922,1.26,-0.78,9.91,-0.04,-0.02,-0.00,31.33
50973192,1729,1,197548,238131,1.29,-0.75,9.95,-0.03,-0.02,-0.00,31.33
51013197,1841,1,197021,236552,1.26,-0.79,9.90,-0.03,-0.01,-0.00,31.33
51053878,1918,1,196983,236250,1.25,-0.79,9.93,-0.04,-0.01,-0.01,31.07
51092197,2112,1,197223,236615,1.27,-0.77,9.91,-0.03,-0.01,-0.00,31.07
51132197,2139,1,197540,237407,1.24,-0.76,9.90,-0.03,-0.01,-0.00,31.07
51172196,2128,1,198062,238141,1.24,-0.78,9.94,-0.03,-0.00,-0.01,31.07
51212196,2130,1,198287,238591,1.29,-0.77,9.88,-0.03,-0.01,-0.00,31.07
51252196,2060,1,198662,239400,1.26,-0.77,9.89,-0.03,0.00,-0.01,31.07
51292176,1759,1,199367,240594,1.23,-0.77,9.91,-0.03,-0.01,-0.00,31.07
51332197,1535,1,199953,241389,1.24,-0.76,9.92,-0.04,-0.01,-0.01,31.07
51372197,1643,1,200651,243050,1.28,-0.77,9.89,-0.04,-0.01,-0.01,31.07
51412197,1506,1,201641,244778,1.24,-0.78,9.90,-0.04,-0.01,-0.01,31.07
51452197,1424,1,202665,246236,1.21,-0.77,9.92,-0.04,-0.02,-0.01,31.07
51492197,1467,1,203757,247708,1.28,-0.78,9.91,-0.04,-0.02,-0.01,31.07
51532196,1473,1,204524,248754,1.27,-0.80,9.87,-0.04,-0.02,-0.00,31.07
51572197,1431,1,205069,249017,1.23,-0.80,9.91,-0.04,-0.02,-0.00,31.07
51612197,1471,1,205216,249235,1.30,-0.79,9.90,-0.04,-0.04,-0.00,31.07
51652197,1387,1,205380,249504,1.32,-0.77,9.87,-0.04,-0.01,-0.01,31.07
51692197,1372,1,205252,248028,1.27,-0.83,9.90,-0.04,-0.02,-0.01,31.07
51732196,1459,1,204860,246960,1.31,-0.77,9.90,-0.04,-0.02,-0.00,31.07
51772193,1616,1,205045,247651,1.30,-0.77,9.90,-0.03,-0.01,-0.01,31.07
51812196,1600,1,205613,248583,1.27,-0.79,9.90,-0.03,-0.01,-0.00,31.07
51852193,1605,1,206322,249670,1.28,-0.81,9.90,-0.04,-0.01,-0.00,31.07
51892197,1577,1,206928,250262,1.29,-0.78,9.92,-0.03,-0.01,-0.01,31.07
51932196,1589,1,207159,250273,1.29,-0.81,9.89,-0.03,-0.01,-0.00,31.07
51972197,1664,1,207088,249794,1.27,-0.80,9.93,-0.03,-0.02,-0.00,31.07
52012197,1626,1,206885,249347,1.31,-0.80,9.88,-0.04,-0.02,-0.00,31.07
52052196,1584,1,206629,249163,1.32,-0.80,9.88,-0.04,-0.02,-0.00,31.07
52092880,1914,1,206513,249249,1.26,-0.80,9.94,-0.03,-0.01,-0.01,30.73
52131196,1920,1,206456,249259,1.29,-0.79,9.92,-0.03,-0.01,-0.00,30.73
52171195,1888,1,206387,249355,1.33,-0.79,9.91,-0.03,-0.01,-0.01,30.73
52211196,1907,1,206485,249698,1.30,-0.79,9.92,-0.03,-0.01,-0.00,30.73
52251196,1927,1,206610,249792,1.29,-0.79,9.89,-0.03,-0.01,-0.00,30.73
52291199,1755,1,206538,249827,1.30,-0.79,9.91,-0.03,-0.01,-0.00,30.73
52331197,1981,1,206500,249829,1.30,-0.80,9.88,-0.03,-0.01,-0.00,30.73
52371196,1947,1,206396,248962,1.28,-0.80,9.92,-0.03,-0.01,-0.00,30.73
52411196,1899,1,205772,247223,1.31,-0.80,9.91,-0.03,-0.01,-0.00,30.73
52451196,1909,1,205480,246990,1.32,-0.80,9.88,-0.03,-0.01,-0.00,30.73
52491213,1930,1,205590,247302,1.28,-0.82,9.89,-0.04,-0.01,-0.00,30.73
52531196,1810,1,205768,247428,1.29,-0.80,9.92,-0.03,-0.01,-0.00,30.73
52571193,1852,1,205731,247310,1.28,-0.79,9.91,-0.03,-0.01,-0.00,30.73
52611196,1904,1,205776,247513,1.30,-0.80,9.89,-0.03,-0.01,-0.00,30.73
52651193,1894,1,205757,247403,1.30,-0.79,9.90,-0.03,-0.01,-0.00,30.73
52691221,1873,1,205688,247314,1.31,-0.80,9.92,-0.03,-0.02,-0.00,30.73
52731196,1892,1,205722,247498,1.29,-0.80,9.90,-0.03,-0.02,-0.00,30.73
52771195,1861,1,205783,247754,1.29,-0.79,9.89,-0.03,-0.01,-0.00,30.73
52811196,1830,1,205868,248127,1.29,-0.82,9.89,-0.04,-0.02,-0.00,30.73
52851195,1843,1,206018,248406,1.30,-0.80,9.90,-0.03,-0.01,-0.00,30.73
52891193,1893,1,206005,248521,1.29,-0.82,9.90,-0.03,-0.01,-0.00,30.73
52931196,1847,1,206066,248768,1.30,-0.80,9.90,-0.03,-0.01,-0.00,30.73
52971193,1835,1,206075,248878,1.30,-0.79,9.87,-0.04,-0.02,-0.00,30.73
53011196,1861,1,206079,248829,1.30,-0.80,9.87,-0.03,-0.01,-0.00,30.73
53051193,1910,1,206044,248858,1.31,-0.78,9.90,-0.03,-0.01,-0.00,30.73
53091196,1971,1,205926,247684,1.30,-0.81,9.89,-0.04,-0.01,-0.00,30.73
53131882,1879,1,205506,246860,1.30,-0.79,9.91,-0.03,-0.01,-0.00,30.73
53172194,1879,1,205488,247018,1.30,-0.81,9.88,-0.04,-0.02,-0.00,30.73
53212192,1888,1,205547,247405,1.31,-0.81,9.91,-0.04,-0.01,-0.00,30.73
53252197,1887,1,205539,247324,1.30,-0.81,9.91,-0.04,-0.02,-0.00,30.73
53292193,1888,1,205454,247388,1.31,-0.83,9.92,-0.04,-0.02,-0.00,30.73
53332197,1927,1,205483,247506,1.33,-0.83,9.89,-0.04,-0.02,-0.00,30.73
53372193,1930,1,205431,247885,1.33,-0.81,9.88,-0.04,-0.01,-0.00,30.73
53412197,1936,1,205596,248179,1.33,-0.80,9.91,-0.03,-0.01,-0.01,30.73
53452192,1942,1,205758,248535,1.29,-0.80,9.92,-0.03,-0.01,-0.00,30.73
53492194,1920,1,205837,248774,1.34,-0.79,9.89,-0.04,-0.01,-0.00,30.73
53532192,1904,1,205860,249197,1.32,-0.82,9.89,-0.03,-0.01,-0.00,30.73
53572196,1890,1,206093,249433,1.35,-0.82,9.91,-0.04,-0.01,-0.00,30.73
53612192,1904,1,206113,249828,1.32,-0.81,9.88,-0.04,-0.01,-0.00,30.73
53652197,1933,1,206314,249959,1.31,-0.82,9.86,-0.03,-0.01,-0.00,30.73
53692192,1966,1,206250,249794,1.30,-0.83,9.88,-0.03,-0.01,-0.00,30.73
53732194,1937,1,206173,249570,1.34,-0.81,9.88,-0.03,-0.02,-0.00,30.73
53772192,1947,1,205837,248268,1.31,-0.81,9.89,-0.03,-0.01,-0.00,30.73
53812197,1871,1,205336,247213,1.32,-0.81,9.91,-0.03,-0.01,-0.01,30.73
53852193,1934,1,205103,247066,1.33,-0.82,9.92,-0.03,-0.01,-0.01,30.73
53892197,1933,1,205140,247229,1.33,-0.81,9.90,-0.03,-0.01,-0.00,30.73
53932192,1931,1,205115,247370,1.35,-0.83,9.87,-0.03,-0.01,-0.00,30.73
53972197,1917,1,205219,247676,1.33,-0.84,9.89,-0.03,-0.01,-0.01,30.73
54012193,1939,1,205330,247953,1.33,-0.80,9.91,-0.03,-0.01,-0.00,30.73
54052194,1890,1,205372,248115,1.32,-0.81,9.90,-0.03,-0.01,-0.00,30.73
54092192,1945,1,205403,248520,1.32,-0.82,9.89,-0.03,-0.01,-0.01,30.73
54132932,1911,1,205708,248990,1.32,-0.80,9.90,-0.03,-0.01,-0.00,30.65
54171193,2119,1,205880,249152,1.31,-0.83,9.92,-0.03,-0.01,-0.00,30.65
54211196,2177,1,205921,249134,1.33,-0.81,9.90,-0.03,-0.01,-0.00,30.65
54251197,1991,1,205803,248891,1.33,-0.80,9.89,-0.03,-0.01,-0.00,30.65
54291196,1933,1,205673,248783,1.36,-0.81,9.88,-0.03,-0.01,-0.00,30.65
54331220,1979,1,205658,248932,1.30,-0.82,9.89,-0.03,-0.01,-0.00,30.65
54371196,1827,1,205718,249153,1.31,-0.78,9.90,-0.03,-0.01,-0.00,30.65
54411197,1866,1,205774,248906,1.31,-0.82,9.90,-0.03,-0.01,-0.00,30.65
54451197,1910,1,205497,247677,1.34,-0.80,9.90,-0.03,-0.01,-0.00,30.65
54491194,1851,1,205209,247058,1.32,-0.82,9.90,-0.03,-0.01,-0.00,30.65
54531196,1821,1,204994,246658,1.32,-0.83,9.91,-0.03,-0.01,-0.00,30.65
54571196,1807,1,204955,246799,1.34,-0.83,9.86,-0.03,-0.01,-0.00,30.65
54611197,1785,1,204969,246818,1.32,-0.81,9.90,-0.03,-0.01,-0.00,30.65
54651196,1783,1,204981,246818,1.32,-0.80,9.90,-0.03,-0.01,-0.00,30.65
54691196,1833,1,204896,246321,1.33,-0.83,9.88,-0.03,-0.01,-0.00,30.65
54731197,1786,1,204646,245844,1.32,-0.82,9.85,-0.03,-0.01,-0.00,30.65
54771196,1793,1,204468,245838,1.35,-0.82,9.89,-0.03,-0.01,-0.00,30.65
54811197,2025,1,204534,246449,1.33,-0.80,9.88,-0.03,-0.01,-0.00,30.65
54851196,2026,1,204902,247120,1.30,-0.80,9.92,-0.03,-0.01,-0.01,30.65
54891196,1840,1,205025,247288,1.30,-0.81,9.97,-0.03,-0.01,-0.00,30.65
54931196,2372,1,205072,247798,1.32,-0.81,9.85,-0.03,-0.01,-0.00,30.65
54971196,3216,1,205275,248530,1.32,-0.80,9.89,-0.03,-0.01,-0.00,30.65
55011196,2890,1,205647,249215,1.32,-0.80,9.89,-0.03,-0.00,-0.00,30.65
55051194,2069,1,205937,249287,1.31,-0.78,9.91,-0.03,-0.01,-0.00,30.65
55091196,1703,1,205805,248419,1.32,-0.82,9.88,-0.03,-0.01,-0.00,30.65
55131197,1967,1,204965,246188,1.33,-0.80,9.89,-0.03,-0.02,-0.00,30.65
55171883,1841,1,204282,245244,1.31,-0.80,9.90,-0.03,-0.01,-0.00,30.59
55210193,1967,1,203999,245044,1.30,-0.81,9.87,-0.03,-0.01,-0.00,30.59
55250196,2026,1,203872,244792,1.32,-0.80,9.90,-0.03,-0.01,-0.00,30.59
55290193,2097,1,203675,244552,1.34,-0.81,9.87,-0.03,-0.01,-0.00,30.59
55330196,2154,1,203494,244217,1.31,-0.80,9.90,-0.03,-0.01,-0.00,30.59
55370193,2159,1,203208,243836,1.32,-0.79,9.89,-0.03,-0.01,-0.00,30.59
55410196,2111,1,202842,243397,1.32,-0.80,9.88,-0.03,-0.01,-0.00,30.59
55450196,2091,1,202626,242868,1.33,-0.80,9.91,-0.03,-0.01,-0.00,30.59
55490196,2071,1,202323,242381,1.31,-0.80,9.88,-0.03,-0.01,-0.00,30.59
55530195,2053,1,202055,242175,1.34,-0.80,9.90,-0.03,-0.01,-0.00,30.59
55570196,2042,1,201964,242068,1.32,-0.80,9.90,-0.03,-0.01,-0.00,30.59
55610196,2025,1,201851,242228,1.31,-0.79,9.89,-0.03,-0.01,-0.00,30.59
55650195,2071,1,201869,242303,1.31,-0.80,9.88,-0.03,-0.01,-0.00,30.59
55690196,2081,1,201816,242127,1.31,-0.80,9.90,-0.03,-0.01,-0.00,30.59
55730196,2087,1,201734,242205,1.32,-0.79,9.91,-0.03,-0.01,-0.00,30.59
55770236,2065,1,201662,242541,1.33,-0.79,9.88,-0.03,-0.01,-0.00,30.59
55810196,2000,1,201831,242404,1.31,-0.80,9.92,-0.04,-0.01,-0.01,30.59
55850196,1965,1,201832,242738,1.28,-0.81,9.91,-0.04,-0.02,-0.01,30.59
55890196,1646,1,202358,244133,1.35,-0.82,9.87,-0.04,-0.02,-0.00,30.59
55930196,1883,1,202841,245096,1.35,-0.82,9.88,-0.03,-0.02,-0.00,30.59
55970241,1950,1,202892,244936,1.34,-0.81,9.89,-0.03,-0.02,-0.00,30.59
56010196,1959,1,202843,245075,1.32,-0.79,9.90,-0.04,-0.02,-0.00,30.59
56050196,1913,1,202921,245298,1.33,-0.80,9.90,-0.03,-0.01,-0.00,30.59
56090193,1906,1,202861,244800,1.33,-0.84,9.93,-0.04,-0.01,-0.00,30.59
56130197,1858,1,202506,244031,1.34,-0.82,9.87,-0.03,-0.01,-0.00,30.59
56170196,1845,1,202164,243866,1.31,-0.78,9.89,-0.03,-0.01,-0.00,30.59
56210883,1834,1,202204,244506,1.35,-0.79,9.89,-0.04,-0.01,-0.00,30.87
56251192,1750,1,202473,245017,1.32,-0.83,9.88,-0.04,-0.02,-0.00,30.87
56291197,1966,1,202603,245439,1.34,-0.83,9.91,-0.05,-0.02,-0.00,30.87
56331192,1856,1,202638,245409,1.34,-0.82,9.90,-0.03,-0.01,-0.00,30.87
56371197,1821,1,202383,244816,1.31,-0.80,9.90,-0.02,-0.00,-0.00,30.87
56411191,1830,1,202059,244356,1.31,-0.79,9.91,-0.03,-0.02,-0.00,30.87
56451197,1835,1,201752,243668,1.33,-0.81,9.87,-0.04,-0.02,-0.00,30.87
56491192,1845,1,201076,241210,1.35,-0.80,9.91,-0.04,-0.03,-0.00,30.87
56531194,1817,1,200168,239724,1.32,-0.82,9.89,-0.04,-0.03,-0.00,30.87
56571192,1854,1,199897,239551,1.36,-0.80,9.89,-0.04,-0.02,-0.00,30.87
56611194,1904,1,199880,239794,1.36,-0.82,9.89,-0.03,-0.01,-0.00,30.87
56651193,1859,1,199825,239907,1.36,-0.83,9.91,-0.03,-0.01,-0.00,30.87
56691197,1856,1,199840,240193,1.34,-0.82,9.91,-0.03,-0.01,-0.00,30.87
56731193,1940,1,200013,240761,1.36,-0.81,9.90,-0.04,-0.02,-0.01,30.87
56771197,1931,1,200237,241291,1.35,-0.81,9.85,-0.04,-0.02,-0.00,30.87
56811192,1921,1,200312,241579,1.33,-0.80,9.91,-0.03,-0.01,-0.00,30.87
56851194,1934,1,200493,241996,1.35,-0.81,9.90,-0.03,-0.01,-0.00,30.87
56891192,1917,1,200533,242124,1.35,-0.81,9.88,-0.03,-0.01,-0.00,30.87
56931197,1893,1,200494,242141,1.33,-0.82,9.89,-0.03,-0.01,-0.01,30.87
56971193,1879,1,200378,242038,1.36,-0.83,9.90,-0.03,-0.01,-0.00,30.87
57011194,1877,1,200316,242118,1.34,-0.80,9.90,-0.03,-0.01,-0.00,30.87
57051192,1905,1,200362,242219,1.33,-0.81,9.88,-0.03,-0.01,-0.00,30.87
57091197,1911,1,200366,242442,1.34,-0.83,9.89,-0.03,-0.01,-0.00,30.87
57131193,1925,1,200328,241400,1.37,-0.82,9.87,-0.03,-0.01,-0.00,30.87
57171197,1919,1,199540,239252,1.33,-0.82,9.90,-0.03,0.00,-0.00,30.87
57210861,1969,1,199188,238959,1.33,-0.81,9.89,-0.03,-0.01,-0.00,30.91
57249196,2009,1,199209,239100,1.37,-0.79,9.89,-0.03,-0.01,-0.00,30.91
57289196,2000,1,199287,239280,1.32,-0.83,9.93,-0.03,-0.01,-0.00,30.91
57329196,2064,1,199322,239748,1.32,-0.82,9.89,-0.04,-0.01,-0.00,30.91
57369196,2005,1,199541,240444,1.35,-0.81,9.89,-0.04,-0.02,-0.01,30.91
57409221,2030,1,199687,240565,1.35,-0.83,9.86,-0.03,-0.01,-0.00,30.91
57449196,1985,1,199721,240581,1.34,-0.82,9.90,-0.03,-0.01,-0.00,30.91
57489196,1998,1,199745,240551,1.35,-0.82,9.87,-0.03,-0.01,-0.00,30.91
57529196,1941,1,199740,240633,1.36,-0.82,9.89,-0.03,-0.01,-0.00,30.91
57569196,2015,1,199770,240973,1.34,-0.82,9.89,-0.04,-0.02,-0.00,30.91
57609195,1968,1,199909,241062,1.35,-0.84,9.95,-0.03,-0.01,-0.01,30.91
57649196,1983,1,199907,241295,1.35,-0.80,9.89,-0.03,-0.01,-0.00,30.91
57689196,2035,1,200063,241728,1.34,-0.81,9.90,-0.04,-0.01,-0.01,30.91
57729196,2042,1,200127,241793,1.34,-0.82,9.88,-0.03,-0.01,-0.00,30.91
57769196,2001,1,200098,241500,1.36,-0.80,9.90,-0.03,-0.01,-0.00,30.91
57809196,2010,1,199614,239250,1.35,-0.79,9.89,-0.03,-0.01,-0.00,30.91
57849196,1968,1,198952,238467,1.33,-0.82,9.93,-0.03,-0.01,-0.00,30.91
57889196,1980,1,198847,238480,1.35,-0.81,9.89,-0.03,-0.01,-0.00,30.91
57929196,2023,1,198906,238700,1.35,-0.81,9.90,-0.03,-0.01,-0.00,30.91
57969195,1975,1,198924,238921,1.34,-0.80,9.91,-0.03,-0.01,-0.01,30.91
58009196,1966,1,199045,239478,1.33,-0.79,9.87,-0.03,-0.01,-0.00,30.91
58049196,1957,1,199191,239633,1.35,-0.82,9.90,-0.03,-0.01,-0.00,30.91
58089196,1931,1,199184,239734,1.33,-0.80,9.87,-0.03,-0.01,-0.00,30.91
58129196,1998,1,199217,239928,1.34,-0.81,9.91,-0.03,-0.01,-0.00,30.91
58169196,1966,1,199311,240326,1.34,-0.79,9.88,-0.04,-0.01,-0.00,30.91
58209196,1952,1,199449,240730,1.35,-0.82,9.89,-0.03,-0.01,-0.01,30.91
58250883,1899,1,199484,240959,1.34,-0.80,9.87,-0.03,-0.01,-0.00,31.05
58289196,1963,1,199466,241066,1.35,-0.81,9.88,-0.03,-0.01,-0.00,31.05
58329196,1981,1,199437,241108,1.35,-0.81,9.90,-0.03,-0.01,-0.00,31.05
58369196,1954,1,199479,241262,1.33,-0.81,9.91,-0.03,-0.01,-0.00,31.05
58409197,1957,1,199507,241401,1.33,-0.80,9.89,-0.03,-0.01,-0.00,31.05
58449196,1969,1,199495,240499,1.36,-0.81,9.90,-0.03,-0.01,-0.00,31.05
58489196,1968,1,198774,238631,1.35,-0.80,9.88,-0.03,-0.01,-0.00,31.05
58529197,1931,1,198537,238608,1.32,-0.81,9.90,-0.03,-0.01,-0.00,31.05
58569196,1963,1,198639,238999,1.36,-0.81,9.91,-0.03,-0.01,-0.00,31.05
58609197,1941,1,198751,239240,1.36,-0.80,9.89,-0.03,-0.01,-0.01,31.05
58649196,1953,1,198784,239501,1.33,-0.81,9.88,-0.03,-0.01,-0.00,31.05
58689196,1937,1,198922,239745,1.35,-0.81,9.90,-0.03,-0.01,-0.00,31.05
58729197,1952,1,198863,239700,1.36,-0.81,9.89,-0.03,-0.01,-0.00,31.05
58769196,1958,1,198888,239745,1.32,-0.82,9.85,-0.03,-0.01,-0.00,31.05
58809197,1963,1,198939,240183,1.33,-0.81,9.92,-0.03,-0.01,-0.00,31.05
58849196,1945,1,199156,240517,1.35,-0.81,9.88,-0.03,-0.01,-0.00,31.05
58889197,1955,1,199202,240768,1.32,-0.81,9.90,-0.03,-0.01,-0.00,31.05
58929197,1920,1,199292,240948,1.35,-0.81,9.89,-0.03,-0.01,-0.00,31.05
58969197,1968,1,199365,241213,1.36,-0.80,9.85,-0.04,-0.01,-0.00,31.05
59009197,1963,1,199412,241291,1.35,-0.81,9.89,-0.03,-0.01,-0.00,31.05
59049209,1947,1,199473,241431,1.34,-0.81,9.88,-0.03,-0.01,-0.00,31.05
59089196,1943,1,199436,240652,1.33,-0.81,9.89,-0.03,-0.01,-0.00,31.05
59129197,1939,1,198759,238417,1.35,-0.82,9.88,-0.03,-0.01,-0.00,31.05
59169197,1936,1,198299,237965,1.32,-0.80,9.89,-0.03,-0.01,-0.00,31.05
59209196,1986,1,198370,238246,1.35,-0.80,9.91,-0.03,-0.01,-0.01,31.05
59250883,1856,1,198458,238458,1.36,-0.80,9.90,-0.03,-0.01,-0.00,31.19
59289193,1937,1,198526,238774,1.32,-0.81,9.89,-0.03,-0.01,-0.00,31.19
59329196,1927,1,198691,239341,1.32,-0.80,9.90,-0.03,-0.01,-0.00,31.19
59369193,1945,1,198762,239291,1.36,-0.81,9.89,-0.03,-0.01,-0.00,31.19
59409197,1962,1,198671,239288,1.34,-0.81,9.89,-0.03,-0.01,-0.00,31.19
59449217,1946,1,198684,239397,1.34,-0.80,9.90,-0.03,-0.01,-0.00,31.19
59489197,1926,1,198791,239757,1.33,-0.80,9.91,-0.03,-0.01,-0.00,31.19
59529197,1954,1,198870,240143,1.33,-0.81,9.89,-0.03,-0.01,-0.00,31.19
59569197,1920,1,198995,240369,1.33,-0.82,9.90,-0.03,-0.01,-0.00,31.19
59609197,1955,1,199024,240580,1.33,-0.81,9.90,-0.03,-0.01,-0.00,31.19
59649197,1919,1,199093,240670,1.33,-0.79,9.91,-0.03,-0.01,-0.00,31.19
59689197,1933,1,199083,240782,1.30,-0.81,9.91,-0.03,-0.01,-0.00,31.19
59729197,1937,1,199054,240592,1.32,-0.80,9.88,-0.03,-0.01,-0.00,31.19
59769194,1933,1,198685,238412,1.33,-0.80,9.88,-0.03,-0.01,-0.00,31.19
59809196,1967,1,197904,237291,1.33,-0.82,9.90,-0.03,-0.01,-0.00,31.19
59849197,1915,1,197751,237325,1.34,-0.80,9.91,-0.03,-0.01,-0.00,31.19
59889197,1941,1,197819,237510,1.37,-0.82,9.88,-0.03,-0.01,-0.00,31.19
59929196,1899,1,197839,237577,1.33,-0.82,9.89,-0.03,-0.01,-0.00,31.19
59969197,1923,1,197874,237845,1.32,-0.82,9.92,-0.03,-0.01,-0.00,31.19
60009196,1889,1,197958,238084,1.35,-0.79,9.89,-0.03,-0.01,-0.00,31.19
60049197,1936,1,197997,238139,1.33,-0.83,9.90,-0.03,-0.01,-0.00,31.19
60089197,1919,1,197975,238102,1.33,-0.81,9.89,-0.03,-0.01,-0.00,31.19
60129197,1911,1,197991,238308,1.34,-0.80,9.90,-0.03,-0.01,-0.00,31.19
60169193,1910,1,198125,238653,1.32,-0.80,9.90,-0.03,-0.01,-0.00,31.19
60209196,1918,1,198215,238942,1.32,-0.78,9.91,-0.03,-0.01,-0.00,31.19
60249883,1853,1,198289,239311,1.35,-0.81,9.88,-0.03,-0.01,-0.00,31.15
60288205,2000,1,198399,239558,1.32,-0.79,9.87,-0.04,-0.01,-0.00,31.15
60328196,1968,1,198473,239733,1.35,-0.80,9.89,-0.03,-0.01,-0.00,31.15
60368196,1933,1,198531,239953,1.32,-0.82,9.89,-0.03,-0.01,-0.00,31.15
60408196,1974,1,198553,239917,1.33,-0.80,9.90,-0.03,-0.01,-0.00,31.15
60448196,1983,1,198400,237947,1.35,-0.81,9.94,-0.03,-0.01,-0.00,31.15
60488196,1977,1,197655,236708,1.35,-0.80,9.93,-0.03,-0.01,-0.00,31.15
60528196,1961,1,197548,236657,1.33,-0.81,9.89,-0.04,-0.01,-0.00,31.15
60568196,1909,1,197573,236768,1.33,-0.82,9.92,-0.03,-0.01,-0.00,31.15
60608196,1963,1,197577,236827,1.35,-0.84,9.90,-0.03,-0.01,-0.00,31.15
60648196,1941,1,197559,237150,1.34,-0.80,9.93,-0.03,-0.01,-0.00,31.15
60688196,1968,1,197697,237528,1.33,-0.79,9.88,-0.03,-0.01,-0.00,31.15
60728196,1974,1,197734,237542,1.33,-0.81,9.88,-0.03,-0.01,-0.00,31.15
60768196,1973,1,197778,237488,1.34,-0.80,9.87,-0.03,-0.01,-0.00,31.15
60808197,1941,1,197720,237667,1.32,-0.81,9.89,-0.03,-0.01,-0.00,31.15
60848196,1959,1,197859,237988,1.34,-0.81,9.87,-0.03,-0.01,-0.01,31.15
60888208,1989,1,197918,238300,1.33,-0.80,9.90,-0.03,-0.01,-0.00,31.15
60928196,1969,1,197972,238564,1.33,-0.81,9.88,-0.03,-0.01,-0.00,31.15
60968196,1971,1,198007,238745,1.33,-0.81,9.89,-0.03,-0.01,-0.00,31.15
61008196,2007,1,198051,238902,1.32,-0.80,9.87,-0.03,-0.01,-0.00,31.15
61048195,1963,1,198104,239008,1.32,-0.81,9.91,-0.03,-0.01,-0.00,31.15
61088196,1948,1,198130,239285,1.31,-0.81,9.90,-0.03,-0.01,-0.00,31.15
61128196,2000,1,198118,239317,1.32,-0.78,9.90,-0.03,-0.01,-0.00,31.15
61168196,1937,1,197941,237519,1.32,-0.80,9.89,-0.03,-0.01,-0.00,31.15
61208196,1927,1,197243,236330,1.33,-0.81,9.91,-0.03,-0.01,-0.00,31.15
61248196,1920,1,197078,236204,1.32,-0.82,9.88,-0.03,-0.01,-0.00,31.15
61288883,1907,1,197146,236350,1.34,-0.80,9.89,-0.03,-0.01,-0.00,31.07
61328197,1925,1,197136,236358,1.32,-0.80,9.89,-0.03,-0.01,-0.00,31.07
61368197,1917,1,197144,236585,1.33,-0.79,9.89,-0.03,-0.01,-0.00,31.07
61408197,1925,1,197282,236879,1.33,-0.78,9.89,-0.03,-0.01,-0.00,31.07
61448196,1947,1,197363,236893,1.32,-0.81,9.90,-0.03,-0.01,-0.00,31.07
61488197,1962,1,197337,236951,1.31,-0.80,9.90,-0.03,-0.01,-0.00,31.07
61528193,1933,1,197405,237195,1.33,-0.80,9.93,-0.03,-0.01,-0.00,31.07
61568197,1974,1,197497,237486,1.33,-0.80,9.92,-0.03,-0.01,-0.01,31.07
61608197,1931,1,197614,237875,1.33,-0.82,9.91,-0.03,-0.01,-0.00,31.07
61648196,1920,1,197800,238200,1.31,-0.80,9.90,-0.03,-0.01,-0.00,31.07
61688193,1933,1,197917,238564,1.35,-0.80,9.86,-0.04,-0.01,-0.00,31.07
