timestamp_us,ecg,leads,ir,red,accX,accY,accZ,gyroX,gyroY,gyroZ,temp
2419499,2861,1,213330,246135,0.00,0.00,0.00,0.00,0.00,0.00,0.00
2449958,2541,1,213628,246563,0.62,-0.86,9.70,-0.03,-0.01,-0.00,31.29
2490198,2338,1,213671,246770,0.65,-0.87,9.95,-0.03,-0.01,-0.00,31.29
2530188,2135,1,213689,246696,0.65,-0.89,9.94,-0.03,-0.01,-0.00,31.29
2570192,1966,1,213701,246625,0.63,-0.89,9.94,-0.03,-0.01,-0.00,31.29
2610188,1839,1,213643,246872,0.65,-0.90,9.96,-0.03,-0.01,-0.00,31.29
2650192,1718,1,213815,247223,0.67,-0.90,9.96,-0.02,0.00,-0.01,31.29
2690169,1488,1,213982,247395,0.63,-0.86,9.95,-0.01,0.00,-0.00,31.29
2730171,1424,1,213660,245678,0.58,-0.84,9.97,-0.01,-0.01,-0.00,31.29
2770188,1283,1,213310,245357,0.64,-0.85,9.94,-0.02,-0.02,-0.00,31.29
2810192,1221,1,213364,245788,0.63,-0.84,9.95,0.00,0.00,-0.00,31.29
2850158,1166,1,213816,246331,0.63,-0.83,9.98,-0.02,-0.01,-0.00,31.29
2890191,1135,1,214175,246583,0.63,-0.84,9.96,-0.02,-0.00,-0.00,31.29
2930188,1102,1,214316,246499,0.63,-0.84,9.96,-0.01,0.01,-0.01,31.29
2970172,1201,1,214220,246613,0.61,-0.83,9.95,-0.03,-0.00,-0.00,31.29
3010188,1141,1,214557,246923,0.59,-0.84,9.95,-0.00,0.02,-0.00,31.29
3050171,1181,1,214820,247104,0.62,-0.81,9.94,-0.00,0.01,-0.00,31.29
3090169,1249,1,214903,247189,0.58,-0.82,10.00,-0.03,0.01,-0.01,31.29
3130172,1211,1,215273,247459,0.57,-0.78,9.97,-0.03,-0.01,-0.00,31.29
3170188,1221,1,215654,248110,0.60,-0.83,9.96,-0.04,-0.02,-0.00,31.29
3210192,1252,1,216004,248457,0.60,-0.81,9.97,-0.03,-0.01,-0.00,31.29
3250188,1282,1,216137,248634,0.61,-0.78,9.94,-0.03,-0.01,-0.00,31.29
3290192,1333,1,216295,248669,0.61,-0.81,9.96,-0.03,-0.01,-0.00,31.29
3330189,1411,1,216229,248596,0.58,-0.79,9.99,-0.03,-0.00,-0.00,31.29
3370192,1485,1,216139,248081,0.58,-0.79,9.97,-0.03,-0.01,-0.01,31.29
3410189,1535,1,215793,246787,0.59,-0.81,9.94,-0.04,-0.01,-0.00,31.29
3450192,1597,1,215243,245426,0.59,-0.81,9.95,-0.04,-0.01,-0.00,31.29
3490875,1647,1,214795,244657,0.60,-0.80,9.97,-0.04,-0.01,-0.01,32.13
3529192,1690,1,214692,244108,0.58,-0.83,9.97,-0.04,-0.02,-0.01,32.13
3569189,1776,1,214480,243338,0.57,-0.81,9.98,-0.03,-0.01,-0.00,32.13
3609192,1777,1,214193,242538,0.58,-0.80,9.96,-0.03,-0.01,-0.00,32.13
3649212,1843,1,213853,241703,0.59,-0.81,9.95,-0.03,-0.01,-0.00,32.13
3689192,1821,1,213366,240472,0.61,-0.81,9.96,-0.03,-0.01,-0.00,32.13
3729188,1951,1,212677,238488,0.58,-0.79,9.98,-0.02,-0.01,-0.00,32.13
3769192,2027,1,211683,235946,0.58,-0.79,9.98,-0.02,-0.01,0.00,32.13
3809169,2133,1,210125,230443,0.57,-0.79,9.97,-0.03,-0.02,0.01,32.13
3849199,2310,1,206864,226426,0.59,-0.79,9.90,-0.02,-0.01,0.01,32.13
3889169,2047,1,207693,231455,0.64,-0.77,9.89,-0.05,0.01,-0.01,32.13
3929172,1968,1,210316,235894,0.57,-0.78,9.97,-0.05,0.01,-0.01,32.13
3969169,1919,1,211081,236647,0.55,-0.80,9.97,-0.04,-0.00,-0.01,32.13
4009192,1837,1,211124,236524,0.55,-0.78,9.97,-0.03,-0.01,-0.00,32.13
4049188,1851,1,210940,236308,0.59,-0.79,9.95,-0.03,-0.01,-0.00,32.13
4089192,1872,1,210550,234219,0.57,-0.81,9.95,-0.03,-0.01,-0.00,32.13
4129189,1882,1,209311,231255,0.56,-0.79,9.96,-0.03,-0.01,-0.01,32.13
4169192,1915,1,208446,229421,0.56,-0.79,9.98,-0.03,-0.00,-0.01,32.13
4209189,1952,1,207902,228777,0.59,-0.80,9.94,-0.03,-0.01,-0.00,32.13
4249192,1972,1,207744,229012,0.55,-0.79,9.95,-0.03,-0.01,-0.00,32.13
4289189,1920,1,208055,230247,0.54,-0.80,9.96,-0.04,-0.01,-0.00,32.13
4329192,1946,1,208461,231077,0.57,-0.79,9.98,-0.04,-0.02,-0.01,32.13
4369189,1952,1,208596,231496,0.55,-0.81,9.94,-0.04,-0.02,-0.01,32.13
4409192,1947,1,208641,231441,0.59,-0.80,9.97,-0.03,-0.02,-0.00,32.13
4449188,1920,1,208612,231471,0.57,-0.82,9.97,-0.04,-0.02,-0.00,32.13
4489192,1895,1,208781,232290,0.58,-0.79,9.95,-0.04,-0.01,-0.01,32.13
4529875,1919,1,209047,232877,0.56,-0.80,9.98,-0.03,-0.00,-0.00,31.89
4570191,1919,1,208990,232924,0.57,-0.80,9.94,-0.03,-0.00,-0.01,31.89
4610188,1919,1,208966,233352,0.57,-0.80,9.99,-0.03,-0.01,-0.01,31.89
4650192,1934,1,209118,234225,0.56,-0.79,9.94,-0.03,-0.01,-0.01,31.89
4690189,1957,1,209255,234519,0.56,-0.79,9.95,-0.03,-0.00,-0.01,31.89
4730191,1926,1,209292,235497,0.56,-0.80,9.93,-0.04,-0.01,-0.01,31.89
4770189,1856,1,209394,235086,0.54,-0.80,9.97,-0.04,0.00,-0.01,31.89
4808171,1765,1,208976,233623,0.53,-0.80,9.97,-0.03,-0.02,-0.00,31.89
4848188,1668,1,208633,232646,0.58,-0.79,9.96,-0.03,-0.02,-0.00,31.89
4888191,1663,1,208652,233420,0.57,-0.81,9.96,-0.04,-0.02,-0.00,31.89
4928188,1683,1,209089,234959,0.57,-0.81,9.94,-0.04,-0.01,-0.01,31.89
4968192,1711,1,209300,235790,0.55,-0.80,9.96,-0.04,-0.01,-0.01,31.89
5008188,1777,1,209516,236140,0.58,-0.79,9.98,-0.03,-0.01,-0.00,31.89
5048192,1797,1,209594,236402,0.55,-0.80,9.95,-0.03,-0.01,-0.00,31.89
5088195,1820,1,209714,236638,0.55,-0.82,9.98,-0.03,-0.01,-0.00,31.89
5128191,1893,1,209779,236822,0.55,-0.79,9.99,-0.04,-0.01,-0.00,31.89
5168188,1966,1,209858,237149,0.56,-0.79,9.96,-0.03,-0.01,-0.00,31.89
5208191,2000,1,210107,237831,0.57,-0.80,9.96,-0.03,-0.02,-0.00,31.89
5248188,2035,1,210342,238696,0.58,-0.81,9.96,-0.03,-0.02,-0.00,31.89
5288205,2112,1,210610,239328,0.59,-0.81,9.94,-0.03,-0.02,-0.00,31.89
5328188,2129,1,210857,240044,0.56,-0.79,9.97,-0.03,-0.01,-0.00,31.89
5368192,2100,1,211043,240186,0.57,-0.83,9.95,-0.03,-0.02,-0.00,31.89
5408189,2077,1,210699,239611,0.58,-0.81,9.94,-0.04,-0.01,-0.00,31.89
5448192,2118,1,209748,239056,0.59,-0.81,9.93,-0.08,-0.02,-0.01,31.89
5488188,2130,1,209203,238539,0.56,-0.83,9.96,-0.02,-0.01,-0.01,31.89
5528192,2182,1,209221,238158,0.57,-0.84,9.96,0.01,-0.01,-0.00,31.89
5568855,2135,1,209372,237674,0.60,-0.79,9.87,-0.00,-0.00,-0.00,32.55
5609192,2163,1,209493,238090,0.57,-0.77,9.97,-0.04,-0.01,-0.00,32.55
5649188,2161,1,209492,238615,0.55,-0.78,9.98,-0.06,-0.02,-0.01,32.55
5689192,2064,1,209411,238617,0.57,-0.82,9.97,-0.06,-0.03,-0.01,32.55
5728189,2066,1,209259,238296,0.58,-0.81,9.97,-0.05,-0.02,-0.01,32.55
5768192,2015,1,209213,238391,0.60,-0.81,9.95,-0.04,-0.01,-0.01,32.55
5808188,2003,1,209124,238638,0.55,-0.80,9.96,-0.04,-0.02,-0.00,32.55
5848192,2036,1,209105,238635,0.60,-0.83,9.94,-0.03,-0.02,-0.00,32.55
5888188,2101,1,209071,238000,0.60,-0.83,9.94,-0.02,-0.00,-0.00,32.55
5928191,2107,1,209064,237946,0.59,-0.82,9.96,0.01,0.03,-0.00,32.55
5968163,2167,1,209210,238311,0.58,-0.80,9.96,-0.03,-0.02,-0.00,32.55
6008192,2126,1,209538,238290,0.57,-0.82,9.97,-0.04,-0.02,-0.00,32.55
6048188,2067,1,209405,237182,0.57,-0.80,9.97,-0.04,-0.02,-0.00,32.55
6088192,2064,1,209029,236184,0.60,-0.79,9.96,-0.04,-0.01,-0.00,32.55
6128188,2032,1,208728,235817,0.60,-0.82,9.96,-0.04,-0.01,-0.00,32.55
6168192,1968,1,208756,235828,0.59,-0.80,9.95,-0.03,-0.01,-0.00,32.55
6208188,1942,1,208867,236233,0.60,-0.80,9.96,-0.03,-0.00,-0.00,32.55
6248192,1945,1,209052,237042,0.61,-0.84,9.95,-0.03,0.00,-0.01,32.55
6288169,1945,1,209353,237449,0.56,-0.80,9.98,-0.03,-0.01,-0.00,32.55
6328192,1934,1,209389,237646,0.59,-0.81,9.96,-0.03,-0.01,-0.00,32.55
6368188,1936,1,209541,237664,0.59,-0.80,9.97,-0.03,-0.01,-0.00,32.55
6408192,1955,1,209626,237710,0.56,-0.80,9.95,-0.03,-0.01,-0.00,32.55
6448188,1943,1,209661,237908,0.57,-0.81,9.94,-0.03,-0.01,-0.00,32.55
6488192,1898,1,209787,238010,0.57,-0.80,9.97,-0.03,-0.01,-0.00,32.55
6528188,1867,1,209873,238277,0.59,-0.80,9.94,-0.03,-0.01,-0.00,32.55
6568192,1869,1,209941,238412,0.58,-0.83,9.96,-0.03,-0.01,-0.00,32.55
6608875,1823,1,210053,238645,0.58,-0.79,9.97,-0.03,-0.01,-0.00,31.95
6649192,1855,1,210162,238842,0.57,-0.80,9.96,-0.04,-0.01,-0.00,31.95
6689188,1839,1,210232,238384,0.60,-0.81,9.93,-0.03,-0.01,-0.00,31.95
6728192,1871,1,209920,237831,0.59,-0.80,9.96,-0.03,0.00,-0.00,31.95
6768169,1856,1,209733,237690,0.56,-0.79,9.97,-0.03,0.00,-0.01,31.95
6808171,1858,1,209698,237777,0.55,-0.80,9.95,-0.03,-0.00,-0.01,31.95
6848188,1871,1,209692,237876,0.55,-0.80,9.95,-0.03,-0.01,-0.00,31.95
6888192,1863,1,209827,238417,0.58,-0.79,9.95,-0.04,-0.02,-0.00,31.95
6928223,1872,1,210172,238877,0.59,-0.79,9.95,-0.04,-0.02,-0.00,31.95
6968192,1845,1,210302,239027,0.58,-0.81,9.99,-0.04,-0.02,-0.00,31.95
7008189,1862,1,210300,239082,0.59,-0.82,9.94,-0.04,-0.02,-0.00,31.95
7048192,1884,1,210299,239158,0.57,-0.81,9.97,-0.04,-0.02,-0.00,31.95
7088188,1887,1,210392,239083,0.58,-0.81,9.97,-0.03,-0.01,-0.00,31.95
7128232,1921,1,210361,238839,0.58,-0.81,9.96,-0.04,-0.02,-0.00,31.95
7168189,1927,1,210296,238674,0.59,-0.82,9.96,-0.03,-0.02,-0.00,31.95
7208192,1899,1,210189,238680,0.61,-0.82,9.96,-0.03,-0.01,-0.00,31.95
7248189,1960,1,210147,238720,0.59,-0.83,9.95,-0.03,-0.01,-0.00,31.95
7288192,1921,1,210215,238623,0.60,-0.78,9.96,-0.03,-0.01,-0.00,31.95
7328188,1954,1,210189,238002,0.59,-0.83,9.96,-0.03,-0.01,-0.00,31.95
7368192,1934,1,209907,236949,0.58,-0.81,9.96,-0.03,-0.01,-0.00,31.95
7408189,1934,1,209582,236270,0.60,-0.79,9.98,-0.03,-0.01,-0.00,31.95
7448191,1947,1,209541,236263,0.57,-0.82,9.96,-0.03,-0.01,-0.00,31.95
7488189,1970,1,209650,236570,0.59,-0.81,9.97,-0.03,-0.01,-0.00,31.95
7528192,1947,1,209799,236909,0.60,-0.78,9.98,-0.03,-0.01,-0.00,31.95
7568188,1935,1,209965,237395,0.60,-0.81,9.96,-0.03,-0.01,-0.00,31.95
7608192,1937,1,210108,237599,0.60,-0.81,9.97,-0.03,-0.01,-0.01,31.95
7648874,1920,1,210139,237814,0.60,-0.80,9.96,-0.04,-0.01,-0.00,31.69
7689192,1942,1,210284,238097,0.59,-0.79,9.95,-0.04,-0.01,-0.00,31.69
7727189,1977,1,210385,238415,0.58,-0.81,9.97,-0.04,-0.01,-0.01,31.69
7768192,1937,1,210483,238661,0.59,-0.80,9.96,-0.03,-0.01,-0.01,31.69
7808188,1911,1,210548,238905,0.58,-0.81,9.93,-0.03,-0.01,-0.00,31.69
7848192,1934,1,210658,239160,0.58,-0.80,9.96,-0.04,-0.01,-0.00,31.69
7888188,1890,1,210784,239422,0.58,-0.83,9.97,-0.04,-0.01,-0.00,31.69
7928192,1895,1,210857,239565,0.60,-0.80,9.97,-0.04,-0.01,-0.00,31.69
7968188,1931,1,210853,239563,0.60,-0.80,9.96,-0.04,-0.01,-0.00,31.69
8008192,1901,1,210769,238963,0.59,-0.82,9.97,-0.03,-0.01,-0.00,31.69
8048189,1909,1,210484,238297,0.59,-0.82,9.97,-0.03,-0.01,-0.00,31.69
8088192,1940,1,210288,237952,0.59,-0.80,9.99,-0.03,-0.02,-0.00,31.69
8128188,1997,1,210251,237884,0.59,-0.81,9.95,-0.03,-0.02,-0.00,31.69
8168191,1894,1,210202,237891,0.61,-0.82,9.97,-0.03,-0.01,-0.00,31.69
8208188,1920,1,210270,238154,0.61,-0.80,9.94,-0.03,-0.01,-0.01,31.69
8248192,1936,1,210374,238456,0.61,-0.82,9.96,-0.03,-0.01,-0.00,31.69
8288189,1931,1,210495,238634,0.60,-0.82,9.96,-0.03,-0.01,-0.00,31.69
8328192,1915,1,210581,238856,0.60,-0.83,9.96,-0.04,-0.01,-0.00,31.69
8368188,1910,1,210606,239114,0.61,-0.80,9.94,-0.03,-0.01,-0.00,31.69
8408192,1904,1,210691,239379,0.58,-0.83,9.97,-0.03,-0.01,-0.00,31.69
8448188,1920,1,210755,239558,0.60,-0.83,9.94,-0.03,-0.01,-0.01,31.69
8488192,1916,1,210871,239799,0.61,-0.79,9.96,-0.03,-0.01,-0.00,31.69
8528189,1897,1,210852,239926,0.59,-0.84,9.98,-0.03,-0.01,-0.00,31.69
8568205,1899,1,210909,240076,0.60,-0.83,9.96,-0.03,-0.01,-0.00,31.69
8608188,1901,1,210969,240191,0.60,-0.83,9.93,-0.03,-0.01,-0.00,31.69
8648192,1906,1,211020,240411,0.59,-0.83,9.93,-0.03,-0.01,-0.00,31.69
8688875,1898,1,211050,240202,0.60,-0.83,9.97,-0.03,-0.01,-0.00,31.81
8727191,1935,1,210899,239652,0.59,-0.82,9.95,-0.03,-0.01,-0.00,31.81
8767220,1963,1,210697,239190,0.60,-0.84,9.97,-0.03,-0.01,-0.01,31.81
8807192,1936,1,210571,238995,0.60,-0.80,9.93,-0.03,-0.01,-0.00,31.81
8847188,1931,1,210527,239002,0.57,-0.80,9.95,-0.03,-0.01,-0.00,31.81
8887192,1934,1,210578,239082,0.61,-0.83,9.95,-0.03,-0.01,-0.00,31.81
8927188,1949,1,210623,239253,0.60,-0.81,9.95,-0.03,-0.01,-0.00,31.81
8967192,1924,1,210709,239444,0.57,-0.81,9.97,-0.03,-0.01,-0.00,31.81
9007189,1939,1,210779,239581,0.61,-0.82,9.94,-0.03,-0.01,-0.00,31.81
9047192,1973,1,210889,239804,0.62,-0.83,9.96,-0.03,-0.01,-0.00,31.81
9087188,1985,1,210951,239950,0.60,-0.81,9.97,-0.03,-0.01,-0.00,31.81
9127192,1978,1,211029,240165,0.60,-0.81,9.96,-0.03,-0.01,-0.01,31.81
9167188,1936,1,211111,240416,0.61,-0.83,9.95,-0.03,-0.01,-0.00,31.81
9207191,1938,1,211212,240563,0.59,-0.83,9.96,-0.03,-0.01,-0.00,31.81
9247188,1937,1,211293,240705,0.60,-0.81,9.99,-0.03,-0.01,-0.00,31.81
9287192,1945,1,211336,240787,0.58,-0.85,9.98,-0.03,-0.01,-0.00,31.81
9327188,1951,1,211390,240884,0.62,-0.82,9.94,-0.03,-0.01,-0.00,31.81
9367192,1938,1,211469,241069,0.59,-0.83,9.95,-0.03,-0.01,-0.00,31.81
9407188,1938,1,211537,241309,0.61,-0.83,9.94,-0.03,-0.01,-0.00,31.81
9447191,1939,1,211625,241316,0.59,-0.83,9.96,-0.03,-0.01,-0.00,31.81
9487188,1933,1,211532,240844,0.60,-0.82,9.96,-0.03,-0.01,-0.00,31.81
9527192,1947,1,211357,240392,0.59,-0.83,9.94,-0.03,-0.01,-0.00,31.81
9567188,1922,1,211230,240116,0.60,-0.83,9.96,-0.03,-0.01,-0.00,31.81
9607192,1936,1,211217,240029,0.62,-0.82,9.96,-0.03,-0.01,-0.00,31.81
9647188,1943,1,211231,240152,0.59,-0.83,9.98,-0.03,-0.01,-0.01,31.81
9687192,1901,1,211279,240352,0.59,-0.82,9.96,-0.03,-0.01,-0.00,31.81
9727875,1909,1,211364,240472,0.61,-0.81,9.95,-0.03,-0.01,-0.00,31.85
9768192,1925,1,211405,240564,0.60,-0.81,9.95,-0.03,-0.01,-0.00,31.85
9808188,1906,1,211437,240730,0.59,-0.81,9.94,-0.03,-0.01,-0.00,31.85
9848192,1911,1,211492,240994,0.61,-0.82,10.00,-0.03,-0.01,-0.01,31.85
9888188,1904,1,211540,241185,0.61,-0.84,9.96,-0.03,-0.01,-0.00,31.85
9928192,1911,1,211617,241469,0.61,-0.81,9.94,-0.03,-0.01,-0.00,31.85
9968188,1879,1,211704,241636,0.61,-0.83,9.96,-0.03,-0.01,-0.00,31.85
10008191,1897,1,211802,241829,0.61,-0.83,9.94,-0.03,-0.01,-0.01,31.85
10048191,1881,1,211932,241973,0.58,-0.83,9.96,-0.03,-0.01,-0.01,31.85
10088191,1854,1,211980,242180,0.59,-0.81,9.96,-0.03,-0.02,-0.00,31.85
10128189,1841,1,212038,242447,0.61,-0.84,9.95,-0.03,-0.01,-0.00,31.85
10168192,1840,1,212169,242740,0.61,-0.84,9.96,-0.03,-0.01,-0.00,31.85
10208189,1854,1,212318,242776,0.62,-0.81,9.97,-0.03,-0.01,-0.00,31.85
10248192,1872,1,212258,242283,0.60,-0.82,9.96,-0.03,-0.01,-0.00,31.85
10288189,1899,1,212084,241786,0.60,-0.83,9.94,-0.02,-0.00,-0.00,31.85
10328192,1914,1,212001,241537,0.59,-0.81,9.97,-0.03,-0.01,-0.00,31.85
10366189,1974,1,211958,241417,0.58,-0.82,9.98,-0.03,-0.01,-0.00,31.85
10406197,1968,1,211957,241467,0.62,-0.83,9.96,-0.03,-0.01,-0.00,31.85
10446189,1970,1,212007,241688,0.60,-0.82,9.98,-0.03,-0.01,-0.01,31.85
10486192,1955,1,212062,241914,0.60,-0.82,9.94,-0.03,-0.01,-0.00,31.85
10526189,1966,1,212161,242074,0.57,-0.82,9.95,-0.04,-0.01,-0.01,31.85
10566191,1963,1,212194,242148,0.58,-0.82,9.95,-0.04,-0.01,-0.00,31.85
10606189,1973,1,212255,242317,0.60,-0.83,9.96,-0.03,-0.01,-0.00,31.85
10646192,2007,1,212336,242385,0.62,-0.83,9.93,-0.03,-0.01,-0.00,31.85
10686189,1994,1,212410,242536,0.62,-0.82,9.96,-0.03,-0.01,-0.00,31.85
10726192,2010,1,212452,242667,0.61,-0.82,9.96,-0.03,-0.01,-0.00,31.85
10766876,1933,1,212493,242866,0.59,-0.82,9.96,-0.03,-0.01,-0.00,31.89
10807192,1936,1,212514,242984,0.61,-0.82,9.94,-0.03,-0.01,-0.00,31.89
10846191,2006,1,212594,243073,0.61,-0.80,9.96,-0.03,-0.01,-0.00,31.89
10886192,2003,1,212586,243101,0.61,-0.79,9.96,-0.03,-0.01,-0.01,31.89
10926191,1989,1,212484,242708,0.61,-0.81,9.98,-0.03,-0.01,-0.00,31.89
10966192,1993,1,212358,242092,0.61,-0.83,9.95,-0.03,-0.01,-0.00,31.89
11006191,1997,1,212104,241580,0.59,-0.83,9.99,-0.03,-0.01,-0.00,31.89
11046192,2014,1,212012,241301,0.60,-0.83,9.96,-0.03,-0.01,-0.01,31.89
11086189,1973,1,211825,241134,0.60,-0.81,9.94,-0.03,-0.01,-0.00,31.89
11126192,1971,1,211794,241193,0.61,-0.82,9.96,-0.03,-0.01,-0.00,31.89
11166189,1959,1,211827,241405,0.61,-0.81,10.01,-0.03,-0.01,-0.00,31.89
11206192,1968,1,211901,241639,0.61,-0.81,9.95,-0.03,-0.01,-0.00,31.89
11246192,1946,1,211963,241769,0.61,-0.83,9.97,-0.03,-0.01,-0.00,31.89
11286192,1959,1,212017,241942,0.60,-0.83,9.94,-0.03,-0.01,-0.00,31.89
11326189,1911,1,212097,242077,0.60,-0.83,9.94,-0.03,-0.01,-0.00,31.89
11366192,1945,1,212149,242341,0.60,-0.82,9.96,-0.03,-0.01,-0.00,31.89
11406189,1965,1,212244,242606,0.61,-0.82,9.98,-0.03,-0.01,-0.00,31.89
11446191,1954,1,212300,242875,0.59,-0.83,9.97,-0.03,-0.01,-0.00,31.89
11486191,1938,1,212465,243145,0.61,-0.82,9.93,-0.03,-0.01,-0.01,31.89
11526192,1951,1,212558,243371,0.60,-0.80,10.00,-0.03,-0.01,-0.00,31.89
11566188,1937,1,212575,243554,0.60,-0.82,9.98,-0.03,-0.01,-0.01,31.89
11606191,1915,1,212615,243519,0.61,-0.82,9.96,-0.03,-0.01,-0.00,31.89
11646191,1937,1,212588,242944,0.61,-0.83,9.95,-0.03,-0.01,-0.00,31.89
11686192,1955,1,212282,242269,0.60,-0.81,9.97,-0.03,-0.01,-0.00,31.89
11726189,1967,1,212078,241705,0.61,-0.83,9.96,-0.03,-0.01,-0.01,31.89
11766192,1952,1,211944,241451,0.60,-0.82,9.97,-0.03,-0.01,-0.00,31.89
11806875,1916,1,211999,241549,0.63,-0.82,9.96,-0.03,-0.01,-0.01,31.89
11847191,1920,1,212050,241605,0.59,-0.81,9.96,-0.04,-0.01,-0.00,31.89
11887189,1911,1,212112,241580,0.59,-0.81,9.96,-0.03,-0.01,-0.00,31.89
11927192,1907,1,212119,241496,0.62,-0.82,9.97,-0.03,-0.01,-0.00,31.89
11967189,1924,1,212104,241257,0.60,-0.83,9.95,-0.03,-0.01,-0.00,31.89
12007192,1902,1,212040,241143,0.61,-0.82,9.94,-0.03,-0.01,-0.00,31.89
12047191,1935,1,212023,241191,0.62,-0.80,9.97,-0.03,-0.01,-0.00,31.89
12087192,1907,1,212015,241497,0.60,-0.82,9.96,-0.03,-0.01,-0.00,31.89
12127189,1905,1,212104,241793,0.61,-0.82,9.97,-0.04,-0.01,-0.00,31.89
12167192,1902,1,212225,242033,0.62,-0.81,9.94,-0.03,-0.01,-0.00,31.89
12207189,1868,1,212237,242183,0.61,-0.83,9.96,-0.03,-0.01,-0.00,31.89
12247192,1893,1,212325,242507,0.62,-0.82,9.98,-0.03,-0.01,-0.00,31.89
12287189,1915,1,212477,242923,0.59,-0.84,9.97,-0.03,-0.01,-0.01,31.89
12327191,1910,1,212582,243023,0.61,-0.82,9.94,-0.03,-0.01,-0.00,31.89
12367189,1905,1,212567,242358,0.60,-0.81,9.98,-0.03,-0.01,-0.00,31.89
12407192,1872,1,212180,241348,0.61,-0.83,9.95,-0.03,-0.01,-0.00,31.89
12447189,1886,1,211791,240569,0.61,-0.84,9.97,-0.03,-0.01,-0.00,31.89
12487192,1889,1,211578,240204,0.63,-0.85,9.94,-0.03,-0.01,-0.00,31.89
12527189,1947,1,211476,240110,0.60,-0.84,9.95,-0.03,-0.01,-0.00,31.89
12567191,1887,1,211463,240350,0.62,-0.81,9.96,-0.03,-0.01,-0.01,31.89
12607192,1920,1,211625,240704,0.59,-0.84,9.95,-0.03,-0.01,-0.00,31.89
12647192,1907,1,211753,241059,0.61,-0.82,9.99,-0.03,-0.01,-0.00,31.89
12687192,1935,1,211808,241395,0.61,-0.83,9.96,-0.03,-0.01,-0.01,31.89
12727191,1928,1,211953,241638,0.61,-0.84,9.98,-0.03,-0.01,-0.00,31.89
12767189,1934,1,211990,241895,0.61,-0.83,9.95,-0.03,-0.01,-0.01,31.89
12807878,1909,1,212092,242122,0.61,-0.83,9.96,-0.03,-0.01,-0.00,31.89
12846189,1920,1,212193,242333,0.61,-0.83,9.94,-0.03,-0.01,-0.00,31.89
12886192,1916,1,212257,242548,0.61,-0.83,9.96,-0.03,-0.01,-0.01,31.89
12926192,1927,1,212315,242826,0.60,-0.84,9.98,-0.03,-0.01,-0.00,31.89
12966192,1891,1,212419,243214,0.61,-0.83,9.95,-0.03,-0.01,-0.00,31.89
13006189,1897,1,212556,243534,0.61,-0.83,9.95,-0.04,-0.01,-0.00,31.89
13046192,1894,1,212636,243676,0.61,-0.81,9.96,-0.04,-0.01,-0.01,31.89
13086192,1894,1,212534,243304,0.60,-0.84,9.95,-0.03,-0.00,-0.01,31.89
13126192,1898,1,212264,242944,0.60,-0.83,9.97,-0.04,-0.01,-0.01,31.89
13166192,1904,1,212173,242852,0.61,-0.85,9.99,-0.04,-0.01,-0.01,31.89
13206192,1869,1,212103,242790,0.60,-0.83,9.94,-0.03,-0.01,-0.00,31.89
13246189,1870,1,212137,242787,0.61,-0.82,9.96,-0.03,-0.01,-0.00,31.89
13286192,1887,1,212161,242869,0.61,-0.83,9.96,-0.03,-0.01,-0.00,31.89
13326189,1904,1,212219,242887,0.60,-0.80,9.96,-0.03,-0.01,-0.00,31.89
13366192,1905,1,212257,242871,0.60,-0.84,9.97,-0.03,-0.01,-0.00,31.89
13406189,1904,1,212264,242979,0.61,-0.84,9.97,-0.03,-0.01,-0.01,31.89
13446192,1899,1,212313,243073,0.60,-0.84,9.96,-0.03,-0.01,-0.00,31.89
13486188,1911,1,212326,243225,0.60,-0.82,9.93,-0.03,-0.01,-0.00,31.89
13526192,1905,1,212373,243442,0.60,-0.83,9.95,-0.03,-0.01,-0.00,31.89
13566188,1913,1,212418,243565,0.61,-0.85,9.94,-0.03,-0.01,-0.00,31.89
13606192,1905,1,212419,243687,0.61,-0.83,9.96,-0.03,-0.01,-0.01,31.89
13646192,1925,1,212456,243820,0.61,-0.83,9.96,-0.03,-0.01,-0.00,31.89
13686214,1913,1,212559,243967,0.62,-0.85,9.98,-0.03,-0.01,-0.00,31.89
13726189,1922,1,212492,243660,0.58,-0.85,9.95,-0.03,-0.01,-0.00,31.89
13766192,1930,1,212247,242971,0.60,-0.84,9.96,-0.03,-0.01,-0.00,31.89
13806189,1907,1,212031,242580,0.62,-0.83,9.96,-0.03,-0.01,-0.00,31.89
13846878,1915,1,211913,242373,0.60,-0.83,9.96,-0.03,-0.01,-0.00,32.05
13885188,1913,1,211859,242334,0.59,-0.81,9.94,-0.03,-0.01,-0.00,32.05
13925191,1940,1,211906,242520,0.60,-0.83,9.98,-0.03,-0.01,-0.00,32.05
13965188,1921,1,211982,242801,0.62,-0.82,9.96,-0.03,-0.01,-0.00,32.05
14005192,1938,1,212123,243029,0.62,-0.82,9.96,-0.03,-0.01,-0.00,32.05
14045189,1936,1,212157,243233,0.62,-0.84,9.95,-0.03,-0.01,-0.01,32.05
14085192,1957,1,212245,243511,0.61,-0.86,9.97,-0.03,-0.01,-0.00,32.05
14125192,1950,1,212321,243811,0.60,-0.81,9.99,-0.03,-0.01,-0.00,32.05
14165192,1953,1,212429,244149,0.63,-0.83,9.95,-0.03,-0.01,-0.00,32.05
14205189,1959,1,212550,244496,0.60,-0.85,9.98,-0.03,-0.01,-0.00,32.05
14245192,1968,1,212595,244726,0.61,-0.82,9.94,-0.03,-0.01,-0.01,32.05
14285192,1960,1,212689,244836,0.60,-0.84,9.96,-0.03,-0.01,-0.00,32.05
14325192,1952,1,212675,244857,0.61,-0.83,9.96,-0.03,-0.01,-0.01,32.05
14365192,1936,1,212682,244867,0.61,-0.82,9.97,-0.03,-0.01,-0.00,32.05
14405192,1939,1,212555,244179,0.61,-0.84,9.95,-0.03,-0.01,-0.00,32.05
14445192,1952,1,212250,243418,0.62,-0.84,9.96,-0.03,-0.01,-0.00,32.05
14485192,1936,1,212017,242920,0.59,-0.81,9.97,-0.03,-0.01,-0.00,32.05
14525195,1930,1,211940,242712,0.62,-0.84,9.97,-0.03,-0.01,-0.00,32.05
14565192,1936,1,211887,242587,0.59,-0.85,9.96,-0.03,-0.01,-0.00,32.05
14605192,1917,1,211942,242607,0.57,-0.85,9.97,-0.03,-0.01,-0.01,32.05
14645192,1922,1,211944,242810,0.62,-0.85,9.96,-0.03,-0.01,-0.01,32.05
14685192,1914,1,211967,242930,0.60,-0.85,9.95,-0.03,-0.01,-0.00,32.05
14725192,1946,1,211967,242984,0.62,-0.85,9.96,-0.03,-0.01,-0.00,32.05
14765189,1931,1,211923,243072,0.62,-0.83,9.96,-0.03,-0.01,-0.00,32.05
14805191,1931,1,211934,243099,0.60,-0.82,9.97,-0.03,-0.01,-0.00,32.05
14845188,1969,1,211925,243172,0.61,-0.81,9.96,-0.03,-0.01,-0.01,32.05
14885878,1921,1,212020,243254,0.60,-0.82,9.98,-0.03,-0.01,-0.00,31.91
14926189,1929,1,211982,243443,0.62,-0.83,9.94,-0.03,-0.01,-0.00,31.91
14966192,1909,1,212013,243558,0.62,-0.84,9.96,-0.03,-0.01,-0.00,31.91
15006189,1907,1,212076,243760,0.61,-0.85,9.96,-0.03,-0.01,-0.00,31.91
15046192,1923,1,212068,243830,0.60,-0.84,9.97,-0.03,-0.01,-0.01,31.91
15086189,1894,1,212039,243243,0.62,-0.84,9.97,-0.03,-0.01,-0.00,31.91
15126192,1892,1,211741,242289,0.62,-0.84,9.97,-0.03,-0.01,-0.00,31.91
15166189,1923,1,211476,241681,0.63,-0.84,9.96,-0.03,-0.01,-0.00,31.91
15206192,1925,1,211327,241394,0.60,-0.84,9.98,-0.03,-0.01,-0.00,31.91
15246188,1921,1,211228,241307,0.62,-0.84,9.96,-0.03,-0.01,-0.00,31.91
15286192,1917,1,211254,241458,0.61,-0.84,9.94,-0.03,-0.01,-0.00,31.91
15326196,1921,1,211357,241941,0.62,-0.84,9.98,-0.03,-0.01,-0.00,31.91
15366192,1898,1,211561,242255,0.62,-0.85,9.95,-0.03,-0.01,-0.01,31.91
15406191,1900,1,211699,242522,0.60,-0.84,9.96,-0.03,-0.01,-0.00,31.91
15446192,1931,1,211771,242728,0.62,-0.85,9.96,-0.03,-0.01,-0.00,31.91
15486189,1904,1,211802,242885,0.61,-0.85,9.94,-0.03,-0.01,-0.00,31.91
15526204,1920,1,211876,243144,0.63,-0.83,9.95,-0.03,-0.01,-0.00,31.91
15566189,1898,1,211959,243374,0.61,-0.85,9.96,-0.03,-0.01,-0.00,31.91
15606192,1912,1,212039,243530,0.62,-0.83,9.97,-0.03,-0.01,-0.00,31.91
15644191,1981,1,212098,243758,0.61,-0.84,9.94,-0.03,-0.01,-0.00,31.91
15684191,1970,1,212183,244007,0.61,-0.84,9.95,-0.03,-0.01,-0.00,31.91
15724189,1987,1,212281,244224,0.62,-0.84,9.96,-0.03,-0.01,-0.01,31.91
15764192,1966,1,212235,243908,0.62,-0.84,9.95,-0.03,-0.01,-0.00,31.91
15804189,1963,1,212083,243074,0.60,-0.84,9.98,-0.03,-0.01,-0.00,31.91
15844191,1957,1,211808,242557,0.61,-0.84,9.97,-0.03,-0.01,-0.00,31.91
15884189,1969,1,211740,242354,0.62,-0.82,9.97,-0.03,-0.01,-0.00,31.91
15924878,1904,1,211700,242313,0.60,-0.84,9.95,-0.03,-0.01,-0.00,31.67
15965188,1910,1,211713,242495,0.62,-0.84,9.96,-0.03,-0.01,-0.01,31.67
16005192,1911,1,211818,242891,0.62,-0.82,9.98,-0.03,-0.01,-0.00,31.67
16045189,1904,1,211951,243107,0.60,-0.83,9.97,-0.03,-0.01,-0.01,31.67
16085192,1934,1,211955,243215,0.63,-0.85,9.95,-0.03,-0.01,-0.00,31.67
16125189,1894,1,211977,243383,0.61,-0.85,9.95,-0.03,-0.01,-0.00,31.67
16165192,1904,1,211987,243501,0.63,-0.82,9.95,-0.03,-0.01,-0.00,31.67
16205188,1890,1,212006,243661,0.62,-0.83,9.97,-0.03,-0.01,-0.00,31.67
16245192,1915,1,212104,243772,0.62,-0.84,9.95,-0.03,-0.01,-0.00,31.67
16285189,1900,1,212100,243893,0.59,-0.84,9.97,-0.03,-0.01,-0.00,31.67
16325192,1903,1,212151,244031,0.62,-0.84,9.95,-0.03,-0.01,-0.00,31.67
16365192,1901,1,212206,244160,0.62,-0.83,9.95,-0.03,-0.01,-0.01,31.67
16405223,1889,1,212223,244165,0.60,-0.83,9.96,-0.03,-0.01,-0.01,31.67
16445189,1903,1,212121,243441,0.58,-0.84,9.96,-0.03,-0.01,-0.00,31.67
16485192,1911,1,211763,242548,0.61,-0.84,9.95,-0.03,-0.01,-0.00,31.67
16525195,1911,1,211485,242023,0.62,-0.84,9.95,-0.03,-0.01,-0.00,31.67
16565192,1913,1,211327,241743,0.61,-0.85,9.95,-0.03,-0.01,-0.00,31.67
16605189,1930,1,211310,241662,0.62,-0.84,9.96,-0.03,-0.01,-0.01,31.67
16645191,1920,1,211307,241847,0.61,-0.83,9.96,-0.03,-0.01,-0.00,31.67
16685189,1932,1,211375,242110,0.60,-0.84,9.96,-0.03,-0.01,-0.01,31.67
16725192,1936,1,211449,242135,0.62,-0.83,9.99,-0.03,-0.01,-0.00,31.67
16765189,1931,1,211424,242243,0.60,-0.82,9.94,-0.03,-0.01,-0.00,31.67
16805191,1936,1,211455,242371,0.60,-0.85,9.94,-0.03,-0.01,-0.01,31.67
16845188,1910,1,211511,242489,0.60,-0.82,9.96,-0.03,-0.01,-0.00,31.67
16885192,1881,1,211525,242604,0.60,-0.84,9.97,-0.03,-0.01,-0.00,31.67
16925875,1883,1,211605,242677,0.60,-0.85,9.98,-0.03,-0.01,-0.01,31.85
16964226,1930,1,211640,242854,0.60,-0.84,9.95,-0.03,-0.01,-0.00,31.85
17004188,1931,1,211729,243004,0.60,-0.84,9.96,-0.03,-0.01,-0.00,31.85
17044192,1945,1,211732,243082,0.61,-0.82,9.96,-0.03,-0.01,-0.00,31.85
17084189,1940,1,211782,242814,0.60,-0.84,9.94,-0.03,-0.01,-0.00,31.85
17124192,1947,1,211463,241722,0.60,-0.83,9.97,-0.03,-0.01,-0.00,31.85
17164188,1943,1,211053,240613,0.61,-0.83,9.96,-0.03,-0.01,-0.00,31.85
17204192,1936,1,210829,240145,0.61,-0.84,9.99,-0.03,-0.01,-0.01,31.85
17244192,1904,1,210764,240052,0.61,-0.83,9.96,-0.03,-0.01,-0.00,31.85
17284192,1915,1,210797,240069,0.59,-0.80,9.95,-0.03,-0.01,-0.00,31.85
17324189,1952,1,210886,240508,0.62,-0.82,9.95,-0.03,-0.01,-0.00,31.85
17364192,1947,1,211093,240854,0.59,-0.84,9.96,-0.04,-0.01,-0.00,31.85
17404192,1947,1,211292,241093,0.62,-0.83,9.96,-0.03,-0.01,-0.00,31.85
17444192,1954,1,211385,241096,0.62,-0.84,9.96,-0.03,-0.01,-0.00,31.85
17484191,1954,1,211473,241213,0.59,-0.85,9.95,-0.03,-0.01,-0.00,31.85
17524199,1913,1,211540,241342,0.61,-0.83,9.95,-0.03,-0.01,-0.00,31.85
17564189,1932,1,211570,241476,0.62,-0.83,9.96,-0.03,-0.01,-0.01,31.85
17604192,1925,1,211530,241549,0.62,-0.83,9.94,-0.03,-0.01,-0.01,31.85
17644192,1936,1,211524,241696,0.60,-0.83,9.99,-0.03,-0.01,-0.00,31.85
17684192,1906,1,211518,241802,0.60,-0.83,9.97,-0.03,-0.01,-0.00,31.85
17724189,1926,1,211575,241977,0.60,-0.82,9.97,-0.03,-0.01,-0.00,31.85
17764192,1929,1,211553,241573,0.59,-0.80,9.95,-0.03,-0.01,-0.00,31.85
17805189,1904,1,211266,240358,0.61,-0.83,9.97,-0.03,-0.01,-0.00,31.85
17845192,1920,1,210893,239431,0.61,-0.81,9.96,-0.03,-0.01,-0.00,31.85
17885189,1911,1,210672,238869,0.59,-0.84,9.95,-0.03,-0.01,-0.00,31.85
17925192,1907,1,210573,238714,0.60,-0.85,9.97,-0.03,-0.01,-0.00,31.85
17965875,1904,1,210537,238859,0.59,-0.84,9.96,-0.03,-0.01,-0.01,31.57
18004192,1923,1,210624,239396,0.61,-0.83,9.94,-0.03,-0.01,-0.00,31.57
18044189,1931,1,210797,239889,0.60,-0.82,9.95,-0.03,-0.01,-0.01,31.57
18084192,1936,1,210891,240176,0.60,-0.83,9.95,-0.03,-0.01,-0.01,31.57
18124189,1920,1,211001,240531,0.60,-0.82,9.95,-0.03,-0.01,-0.00,31.57
18164191,1929,1,211170,240942,0.62,-0.81,9.98,-0.03,-0.01,-0.00,31.57
18204189,1904,1,211307,241444,0.62,-0.84,9.96,-0.03,-0.01,-0.00,31.57
18244192,1919,1,211457,241975,0.62,-0.83,9.99,-0.04,-0.01,-0.00,31.57
18284189,1911,1,211610,242504,0.60,-0.85,9.96,-0.03,-0.01,-0.01,31.57
18324192,1906,1,211799,242933,0.61,-0.83,9.98,-0.04,-0.01,-0.00,31.57
18364188,1933,1,211878,243179,0.62,-0.82,9.97,-0.03,-0.01,-0.00,31.57
18404192,1909,1,211982,243386,0.60,-0.84,9.93,-0.03,-0.01,-0.00,31.57
18444189,1906,1,211991,243078,0.60,-0.82,9.95,-0.03,-0.01,-0.00,31.57
18484192,1913,1,211786,242183,0.62,-0.82,9.96,-0.03,-0.01,-0.00,31.57
18524198,1917,1,211489,241466,0.62,-0.83,9.95,-0.03,-0.01,-0.00,31.57
18564192,1902,1,211241,240908,0.63,-0.83,9.96,-0.03,-0.01,-0.01,31.57
18604221,1933,1,211179,240591,0.60,-0.82,9.97,-0.03,-0.01,-0.00,31.57
18644192,1915,1,211150,240574,0.61,-0.83,9.97,-0.03,-0.01,-0.00,31.57
18684189,1910,1,211181,240719,0.60,-0.84,9.99,-0.03,-0.01,-0.00,31.57
18724192,1913,1,211206,240846,0.60,-0.84,9.93,-0.03,-0.01,-0.00,31.57
18764188,1920,1,211258,240856,0.62,-0.83,9.98,-0.03,-0.01,-0.00,31.57
18805192,1910,1,211296,240893,0.61,-0.83,9.97,-0.03,-0.01,-0.00,31.57
18843191,1963,1,211337,241032,0.60,-0.84,9.97,-0.03,-0.01,-0.00,31.57
18883192,1966,1,211424,241174,0.60,-0.84,9.96,-0.03,-0.01,-0.00,31.57
18923189,1953,1,211495,241323,0.61,-0.83,9.95,-0.03,-0.01,-0.00,31.57
18963192,1963,1,211586,241402,0.60,-0.83,9.94,-0.03,-0.01,-0.01,31.57
19003893,1872,1,211614,241574,0.61,-0.83,9.94,-0.03,-0.01,-0.00,31.77
19044192,1920,1,211650,241791,0.62,-0.83,9.98,-0.03,-0.01,-0.00,31.77
19084189,1902,1,211762,241881,0.62,-0.82,9.95,-0.03,-0.01,-0.00,31.77
19124192,1915,1,211596,241077,0.59,-0.84,9.95,-0.03,-0.01,-0.00,31.77
19164189,1915,1,211205,240182,0.61,-0.83,9.95,-0.03,-0.01,-0.00,31.77
19204192,1905,1,210972,239699,0.60,-0.82,9.96,-0.03,-0.01,-0.00,31.77
19244189,1927,1,210859,239506,0.60,-0.83,9.95,-0.03,-0.01,-0.00,31.77
19284192,1920,1,210796,239395,0.61,-0.82,9.98,-0.03,-0.01,-0.00,31.77
19324189,1934,1,210779,239450,0.61,-0.84,9.97,-0.03,-0.01,-0.00,31.77
19364192,1903,1,210869,239543,0.62,-0.84,9.95,-0.03,-0.01,-0.00,31.77
19404189,1919,1,210873,239681,0.61,-0.83,9.94,-0.03,-0.01,-0.00,31.77
19444192,1909,1,210865,239991,0.59,-0.82,9.95,-0.03,-0.01,-0.00,31.77
19484189,1905,1,210977,240218,0.61,-0.81,9.96,-0.03,-0.01,-0.00,31.77
19524199,1912,1,211058,240353,0.61,-0.83,9.94,-0.03,-0.01,-0.00,31.77
19564189,1904,1,211060,240454,0.62,-0.84,9.97,-0.03,-0.01,-0.00,31.77
19604192,1887,1,211155,240681,0.61,-0.82,9.96,-0.03,-0.01,-0.01,31.77
19644191,1911,1,211136,240817,0.60,-0.82,9.97,-0.03,-0.01,-0.00,31.77
19684192,1911,1,211225,240995,0.61,-0.84,9.96,-0.03,-0.01,-0.00,31.77
19724191,1907,1,211267,241077,0.59,-0.82,9.95,-0.03,-0.01,-0.00,31.77
19764192,1904,1,211294,240703,0.59,-0.84,9.99,-0.03,-0.01,-0.00,31.77
19804189,1920,1,210946,239602,0.60,-0.82,9.93,-0.03,-0.01,-0.00,31.77
19843192,1969,1,210534,238709,0.60,-0.83,9.98,-0.03,-0.01,-0.01,31.77
19883189,1937,1,210323,238273,0.59,-0.86,9.99,-0.03,-0.01,-0.00,31.77
19923192,1935,1,210284,237972,0.61,-0.85,9.97,-0.03,-0.01,-0.00,31.77
19963191,1956,1,210232,237941,0.60,-0.83,9.96,-0.03,-0.01,-0.00,31.77
20003192,1977,1,210368,238394,0.61,-0.82,9.98,-0.03,-0.01,-0.01,31.77
20043879,1909,1,210551,238942,0.61,-0.83,9.99,-0.04,-0.01,-0.00,31.69
20084192,1920,1,210670,239128,0.59,-0.84,9.97,-0.03,-0.01,-0.00,31.69
20124189,1917,1,210751,239149,0.62,-0.84,9.96,-0.03,-0.01,-0.00,31.69
20164192,1891,1,210787,239149,0.59,-0.82,9.96,-0.03,-0.01,-0.00,31.69
20204189,1930,1,210887,239420,0.62,-0.83,9.94,-0.03,-0.01,-0.00,31.69
20244192,1907,1,210916,239752,0.62,-0.84,9.93,-0.04,-0.01,-0.00,31.69
20284188,1885,1,211043,240080,0.60,-0.83,9.95,-0.03,-0.01,-0.00,31.69
20324192,1903,1,211178,240131,0.60,-0.82,9.96,-0.03,-0.01,-0.00,31.69
20364188,1918,1,211280,240261,0.60,-0.82,9.99,-0.03,-0.01,-0.01,31.69
20404192,1904,1,211288,240540,0.58,-0.83,9.97,-0.03,-0.01,-0.00,31.69
20444193,1927,1,211326,240788,0.62,-0.82,9.96,-0.04,-0.01,-0.00,31.69
20484192,1926,1,211281,240178,0.59,-0.83,9.96,-0.03,-0.01,-0.00,31.69
20524197,1920,1,210962,239084,0.58,-0.84,9.95,-0.03,-0.01,-0.00,31.69
20564192,1911,1,210641,238343,0.61,-0.83,9.98,-0.03,-0.01,-0.00,31.69
20604189,1909,1,210495,238117,0.61,-0.82,9.94,-0.03,-0.01,-0.01,31.69
20644217,1905,1,210432,238219,0.62,-0.82,9.95,-0.04,-0.01,-0.00,31.69
20684189,1925,1,210534,238580,0.61,-0.84,9.95,-0.04,-0.01,-0.01,31.69
20724192,1914,1,210670,238806,0.61,-0.82,9.98,-0.03,-0.01,-0.01,31.69
20764192,1902,1,210759,238895,0.62,-0.82,9.97,-0.03,-0.01,-0.00,31.69
20804192,1906,1,210763,239081,0.61,-0.83,9.95,-0.03,-0.01,-0.00,31.69
20844189,1903,1,210816,239432,0.62,-0.83,9.96,-0.04,-0.01,-0.01,31.69
20883192,1909,1,210939,239809,0.61,-0.85,9.97,-0.04,-0.01,-0.01,31.69
20923192,1921,1,210992,240080,0.58,-0.80,9.96,-0.03,-0.01,-0.00,31.69
20963192,1931,1,211130,240209,0.61,-0.83,9.94,-0.03,-0.01,-0.00,31.69
21003189,1939,1,211155,240437,0.62,-0.84,9.93,-0.03,-0.01,-0.00,31.69
21043192,1930,1,211209,240778,0.62,-0.84,9.94,-0.03,-0.01,-0.01,31.69
21083878,1897,1,211335,241102,0.60,-0.82,9.96,-0.04,-0.01,-0.00,31.61
21124192,1898,1,211416,241273,0.60,-0.83,9.97,-0.03,-0.01,-0.00,31.61
21164188,1904,1,211510,241298,0.63,-0.85,9.96,-0.03,-0.01,-0.00,31.61
21204192,1913,1,211547,241033,0.61,-0.84,9.96,-0.03,-0.01,-0.00,31.61
21244191,1910,1,211292,240153,0.62,-0.82,9.99,-0.03,-0.01,-0.01,31.61
21284191,1934,1,210938,239454,0.58,-0.81,9.94,-0.03,-0.01,-0.00,31.61
21324191,1919,1,210717,239016,0.60,-0.81,9.95,-0.03,-0.01,-0.00,31.61
21364192,1905,1,210682,238652,0.63,-0.84,9.96,-0.03,-0.01,-0.00,31.61
21404192,1936,1,210599,238526,0.62,-0.83,9.96,-0.03,-0.01,-0.00,31.61
21444192,1904,1,210657,238857,0.60,-0.82,9.96,-0.03,-0.01,-0.01,31.61
21484189,1904,1,210776,239254,0.61,-0.84,9.95,-0.03,-0.01,-0.00,31.61
21522191,1943,1,210823,239391,0.61,-0.83,9.98,-0.03,-0.01,-0.00,31.61
21562191,1985,1,210921,239279,0.60,-0.85,9.93,-0.03,-0.01,-0.00,31.61
21602192,1982,1,210919,239427,0.62,-0.84,9.96,-0.03,-0.01,-0.00,31.61
21642192,1982,1,211052,239776,0.60,-0.84,9.97,-0.03,-0.01,-0.01,31.61
21682192,1984,1,211162,240153,0.61,-0.81,9.96,-0.03,-0.01,-0.01,31.61
21722192,1979,1,211266,240394,0.59,-0.83,9.96,-0.03,-0.01,-0.01,31.61
21762192,1990,1,211384,240503,0.62,-0.83,9.97,-0.03,-0.01,-0.00,31.61
21802192,1980,1,211521,240697,0.61,-0.83,9.95,-0.03,-0.01,-0.00,31.61
21842192,1976,1,211598,241004,0.62,-0.83,9.95,-0.03,-0.01,-0.01,31.61
21883191,1920,1,211656,241299,0.62,-0.83,9.95,-0.03,-0.01,-0.01,31.61
21923192,1931,1,211726,241524,0.60,-0.83,9.96,-0.03,-0.01,-0.01,31.61
21963189,1918,1,211819,241407,0.62,-0.82,9.96,-0.03,-0.01,-0.00,31.61
22003192,1905,1,211691,240547,0.61,-0.85,9.96,-0.03,-0.01,-0.00,31.61
22043191,1917,1,211306,239842,0.61,-0.83,9.96,-0.03,-0.01,-0.00,31.61
22083225,1909,1,211150,239590,0.60,-0.82,9.90,-0.03,-0.01,-0.00,31.61
22123874,1895,1,211123,239512,0.61,-0.84,9.98,-0.03,-0.01,-0.00,31.57
22162192,1920,1,211142,239458,0.59,-0.83,9.97,-0.03,-0.01,-0.00,31.57
22202191,1943,1,211180,239718,0.61,-0.84,9.97,-0.03,-0.01,-0.00,31.57
22242191,1952,1,211290,240131,0.63,-0.84,9.95,-0.03,-0.01,-0.00,31.57
22282191,1947,1,211326,240394,0.61,-0.82,9.95,-0.04,-0.01,-0.00,31.57
22322192,1944,1,211343,240575,0.61,-0.84,9.95,-0.03,-0.01,-0.00,31.57
22362191,1953,1,211400,240691,0.62,-0.84,9.97,-0.03,-0.01,-0.00,31.57
22402192,1937,1,211477,240883,0.61,-0.83,9.96,-0.03,-0.01,-0.00,31.57
22442191,1938,1,211527,241044,0.62,-0.82,9.94,-0.03,-0.01,-0.01,31.57
22482191,1951,1,211572,241337,0.62,-0.82,9.96,-0.03,-0.01,-0.00,31.57
22522191,1966,1,211663,241477,0.60,-0.83,9.96,-0.03,-0.01,-0.00,31.57
22562192,1982,1,211709,241591,0.60,-0.85,9.96,-0.03,-0.01,-0.00,31.57
22602189,1934,1,211769,241714,0.62,-0.85,9.95,-0.03,-0.01,-0.00,31.57
22642192,1943,1,211840,241875,0.62,-0.84,9.96,-0.03,-0.01,-0.00,31.57
22682191,1941,1,211795,241588,0.62,-0.82,9.95,-0.03,-0.01,-0.01,31.57
22722192,1943,1,211515,240543,0.61,-0.85,9.97,-0.03,-0.01,-0.01,31.57
22762192,1936,1,211174,239643,0.59,-0.83,9.97,-0.03,-0.01,-0.01,31.57
22802192,1918,1,210974,239181,0.58,-0.83,9.94,-0.03,-0.01,-0.00,31.57
22842191,1933,1,210944,239071,0.62,-0.85,9.97,-0.03,-0.01,-0.00,31.57
22882192,1933,1,210926,239379,0.62,-0.84,9.96,-0.03,-0.01,-0.01,31.57
22923191,1910,1,211050,239676,0.61,-0.84,9.95,-0.03,-0.01,-0.00,31.57
22963192,1898,1,211171,239679,0.64,-0.83,9.96,-0.03,-0.01,-0.00,31.57
23003191,1918,1,211202,239706,0.64,-0.84,9.94,-0.03,-0.01,-0.00,31.57
23043192,1898,1,211256,239832,0.60,-0.85,9.96,-0.03,-0.01,-0.01,31.57
23083189,1917,1,211369,240121,0.61,-0.82,9.96,-0.03,-0.01,-0.00,31.57
23123192,1904,1,211443,240278,0.59,-0.82,9.96,-0.03,-0.01,-0.00,31.57
23163878,1911,1,211484,240430,0.61,-0.82,9.96,-0.03,-0.01,-0.00,31.47
23202192,1932,1,211537,240549,0.61,-0.85,9.95,-0.03,-0.01,-0.00,31.47
23242192,1931,1,211582,240939,0.61,-0.82,9.96,-0.03,-0.01,-0.00,31.47
23282192,1906,1,211666,241267,0.61,-0.83,9.95,-0.04,-0.01,-0.00,31.47
23322192,1936,1,211729,241394,0.58,-0.82,9.94,-0.03,-0.01,-0.00,31.47
23362192,1936,1,211711,240774,0.59,-0.82,9.96,-0.03,-0.01,-0.00,31.47
23402192,1923,1,211351,239397,0.61,-0.83,9.96,-0.03,-0.01,-0.00,31.47
23442192,1923,1,210898,238470,0.62,-0.83,9.92,-0.03,-0.01,-0.00,31.47
23482191,1923,1,210751,238174,0.59,-0.83,9.99,-0.03,-0.01,-0.01,31.47
23522192,1919,1,210715,238119,0.61,-0.84,9.98,-0.03,-0.01,-0.00,31.47
23562192,1919,1,210709,238100,0.60,-0.83,9.95,-0.03,-0.01,-0.00,31.47
23602192,1920,1,210756,238459,0.60,-0.85,9.96,-0.03,-0.01,-0.01,31.47
23642189,1911,1,210881,238929,0.61,-0.83,9.97,-0.03,-0.01,-0.01,31.47
23682192,1925,1,211025,239323,0.62,-0.83,9.96,-0.03,-0.01,-0.00,31.47
23722240,1941,1,211085,239458,0.60,-0.83,9.95,-0.03,-0.01,-0.00,31.47
23762192,1927,1,211202,239516,0.60,-0.82,9.96,-0.03,-0.01,-0.00,31.47
23802189,1925,1,211239,239671,0.60,-0.85,9.97,-0.03,-0.01,-0.00,31.47
23842192,1910,1,211290,240088,0.63,-0.84,9.96,-0.03,-0.01,-0.00,31.47
23882191,1910,1,211344,240458,0.61,-0.83,9.93,-0.03,-0.01,-0.01,31.47
23922231,1920,1,211475,240687,0.60,-0.84,9.99,-0.03,-0.01,-0.00,31.47
23962189,1917,1,211558,240816,0.59,-0.85,9.95,-0.03,-0.01,-0.00,31.47
24002192,1905,1,211617,241007,0.60,-0.82,9.95,-0.03,-0.01,-0.00,31.47
24042189,1918,1,211697,241214,0.61,-0.82,9.96,-0.03,-0.01,-0.00,31.47
24082191,1904,1,211658,240454,0.60,-0.83,9.96,-0.03,-0.01,-0.00,31.47
24122189,1909,1,211254,238966,0.62,-0.83,9.97,-0.03,-0.01,-0.01,31.47
24162192,1930,1,210840,237958,0.62,-0.84,9.96,-0.03,-0.01,-0.01,31.47
24202878,1907,1,210660,237687,0.62,-0.85,9.96,-0.03,-0.01,-0.00,31.61
24241192,1967,1,210673,237858,0.61,-0.85,9.96,-0.03,-0.01,-0.00,31.61
24281191,1967,1,210826,238237,0.60,-0.82,9.94,-0.03,-0.01,-0.00,31.61
24321192,1968,1,210915,238566,0.59,-0.84,9.98,-0.03,-0.01,-0.00,31.61
24361189,1970,1,211060,238785,0.61,-0.81,9.95,-0.03,-0.01,-0.01,31.61
24401191,1939,1,211149,238918,0.60,-0.83,9.96,-0.03,-0.01,-0.00,31.61
24441189,1959,1,211250,239118,0.60,-0.85,9.96,-0.03,-0.01,-0.00,31.61
24481192,1990,1,211326,239200,0.61,-0.84,9.97,-0.03,-0.01,-0.00,31.61
24521192,1961,1,211397,239376,0.60,-0.83,9.95,-0.03,-0.01,-0.00,31.61
24561192,1965,1,211468,239739,0.59,-0.81,9.93,-0.03,-0.01,-0.00,31.61
24601188,1962,1,211599,240165,0.62,-0.81,9.97,-0.03,-0.01,-0.01,31.61
24641191,1949,1,211701,240547,0.62,-0.84,9.95,-0.04,-0.01,-0.01,31.61
24681192,1950,1,211812,240665,0.58,-0.83,9.97,-0.03,-0.01,-0.00,31.61
24721192,1957,1,211860,240735,0.61,-0.83,9.98,-0.03,-0.01,-0.00,31.61
24761191,1949,1,211910,240873,0.62,-0.81,9.98,-0.03,-0.01,-0.00,31.61
24801192,1970,1,211851,240213,0.60,-0.84,9.96,-0.03,-0.01,-0.00,31.61
24841189,1972,1,211486,239110,0.60,-0.82,9.95,-0.04,-0.01,-0.00,31.61
24881192,1970,1,211173,238370,0.62,-0.82,9.96,-0.03,-0.01,-0.00,31.61
24921192,1957,1,211005,238007,0.61,-0.83,9.94,-0.03,-0.01,-0.00,31.61
24961192,1978,1,210976,238019,0.61,-0.83,9.94,-0.03,-0.01,-0.00,31.61
25001191,1957,1,211023,238666,0.62,-0.82,9.97,-0.03,-0.01,-0.01,31.61
25041192,1949,1,211213,239327,0.59,-0.84,10.00,-0.04,-0.01,-0.01,31.61
25081191,1956,1,211359,239610,0.60,-0.83,9.96,-0.03,-0.01,-0.00,31.61
25121192,1942,1,211443,239642,0.60,-0.84,9.95,-0.03,-0.01,-0.00,31.61
25161189,1952,1,211448,239811,0.63,-0.82,9.95,-0.03,-0.01,-0.00,31.61
25201192,1931,1,211570,240292,0.61,-0.81,9.97,-0.03,-0.01,-0.01,31.61
25241878,1904,1,211728,240835,0.59,-0.82,9.92,-0.04,-0.01,-0.00,31.55
25282192,1920,1,211880,241150,0.59,-0.82,10.02,-0.03,-0.01,-0.00,31.55
25322192,1909,1,211983,241281,0.60,-0.84,9.94,-0.03,-0.01,-0.00,31.55
25362199,1904,1,212087,241473,0.60,-0.83,9.97,-0.03,-0.01,-0.01,31.55
25402189,1913,1,212144,241872,0.61,-0.84,9.96,-0.03,-0.01,-0.00,31.55
25442192,1909,1,212261,242205,0.61,-0.83,9.96,-0.04,-0.01,-0.00,31.55
25482189,1921,1,212252,242170,0.59,-0.83,9.96,-0.03,-0.01,-0.00,31.55
25522192,1920,1,212205,241092,0.61,-0.83,9.96,-0.03,-0.01,-0.00,31.55
25562231,1922,1,211794,239986,0.62,-0.83,9.95,-0.03,-0.01,-0.00,31.55
25602192,1895,1,211554,239623,0.61,-0.83,9.97,-0.03,-0.01,-0.00,31.55
25642192,1921,1,211514,239707,0.60,-0.83,9.96,-0.03,-0.01,-0.00,31.55
25682192,1935,1,211553,239751,0.62,-0.80,9.97,-0.03,-0.01,-0.01,31.55
25722189,1921,1,211623,239922,0.60,-0.83,9.98,-0.03,-0.01,-0.00,31.55
25762214,1910,1,211689,239945,0.62,-0.84,9.94,-0.03,-0.01,-0.00,31.55
25802192,1915,1,211823,240163,0.62,-0.83,9.96,-0.03,-0.01,-0.00,31.55
25842191,1918,1,211848,240442,0.61,-0.82,9.96,-0.04,-0.01,-0.00,31.55
25882192,1893,1,211958,240563,0.60,-0.83,9.96,-0.03,-0.01,-0.00,31.55
25922191,1912,1,212023,240562,0.62,-0.83,9.97,-0.03,-0.01,-0.00,31.55
25962191,1904,1,212003,240635,0.61,-0.84,9.96,-0.03,-0.01,-0.00,31.55
26002192,1913,1,212055,240944,0.59,-0.84,9.94,-0.03,-0.01,-0.00,31.55
26042191,1914,1,212148,241392,0.61,-0.84,9.96,-0.04,-0.01,-0.00,31.55
26082192,1922,1,212168,241683,0.60,-0.82,9.96,-0.03,-0.01,-0.00,31.55
26122189,1920,1,212229,241732,0.60,-0.82,9.95,-0.03,-0.01,-0.00,31.55
26162192,1918,1,212288,241722,0.59,-0.83,9.95,-0.03,-0.01,-0.00,31.55
26202192,1899,1,212171,241151,0.61,-0.83,9.92,-0.03,-0.01,-0.00,31.55
26242878,1901,1,211864,240113,0.62,-0.81,9.95,-0.03,-0.01,-0.00,31.63
26281191,1935,1,211529,239303,0.60,-0.83,9.94,-0.03,-0.01,-0.00,31.63
26321192,1943,1,211343,238769,0.62,-0.82,9.95,-0.03,-0.01,-0.00,31.63
26361191,1929,1,211220,238640,0.63,-0.84,9.94,-0.03,-0.01,-0.00,31.63
26401191,1924,1,211315,239127,0.62,-0.82,9.94,-0.03,-0.01,-0.01,31.63
26441191,1930,1,211508,239805,0.62,-0.84,9.95,-0.03,-0.01,-0.01,31.63
26481192,1936,1,211674,240041,0.59,-0.83,9.96,-0.03,-0.01,-0.00,31.63
26521196,1912,1,211723,240016,0.62,-0.84,9.98,-0.03,-0.01,-0.00,31.63
26561191,1905,1,211724,240098,0.62,-0.84,9.95,-0.03,-0.01,-0.00,31.63
26601191,1899,1,211846,240514,0.62,-0.82,9.98,-0.03,-0.01,-0.01,31.63
26641192,1916,1,211958,240962,0.61,-0.83,9.97,-0.03,-0.01,-0.00,31.63
26681191,1932,1,212128,241207,0.59,-0.82,9.97,-0.03,-0.01,-0.01,31.63
26721192,1934,1,212190,241237,0.61,-0.83,9.97,-0.03,-0.01,-0.00,31.63
26761191,1929,1,212215,241362,0.63,-0.82,9.96,-0.03,-0.01,-0.00,31.63
26801192,1913,1,212252,241665,0.62,-0.82,9.96,-0.03,-0.01,-0.00,31.63
26841191,1925,1,212367,242079,0.61,-0.83,9.97,-0.03,-0.01,-0.00,31.63
26881192,1923,1,212488,242283,0.62,-0.84,9.96,-0.03,-0.01,-0.00,31.63
26921191,1911,1,212552,241950,0.61,-0.82,9.95,-0.03,-0.01,-0.00,31.63
26961192,1934,1,212302,240508,0.61,-0.83,9.98,-0.03,-0.01,-0.00,31.63
27001192,1944,1,211800,239445,0.62,-0.82,9.96,-0.03,-0.01,-0.01,31.63
27041192,1936,1,211612,239231,0.61,-0.81,9.93,-0.04,-0.01,-0.00,31.63
27081191,1933,1,211603,239230,0.60,-0.82,9.98,-0.03,-0.01,-0.00,31.63
27121192,1922,1,211624,239056,0.60,-0.83,9.95,-0.03,-0.01,-0.00,31.63
27161189,1894,1,211658,239233,0.63,-0.82,9.95,-0.03,-0.01,-0.00,31.63
27201210,1900,1,211776,239715,0.61,-0.83,9.98,-0.03,-0.01,-0.01,31.63
27241192,1911,1,211967,240185,0.60,-0.82,9.96,-0.04,-0.01,-0.01,31.63
27281879,1898,1,212069,240451,0.61,-0.82,9.99,-0.03,-0.01,-0.00,31.53
27320191,1969,1,212182,240471,0.60,-0.82,9.97,-0.03,-0.01,-0.00,31.53
27360192,1963,1,212256,240574,0.63,-0.82,9.97,-0.03,-0.01,-0.00,31.53
27400218,1963,1,212296,240989,0.63,-0.83,9.95,-0.03,-0.01,-0.01,31.53
27440192,1957,1,212468,241441,0.59,-0.82,9.98,-0.04,-0.01,-0.00,31.53
27480189,1969,1,212559,241711,0.61,-0.81,9.96,-0.03,-0.01,-0.00,31.53
27520192,1987,1,212627,241791,0.61,-0.80,9.95,-0.03,-0.01,-0.00,31.53
27560189,1968,1,212679,241951,0.61,-0.83,9.96,-0.03,-0.01,-0.00,31.53
27600192,1955,1,212770,242408,0.61,-0.82,9.98,-0.03,-0.01,-0.00,31.53
27640191,1955,1,212881,242850,0.61,-0.83,9.96,-0.04,-0.01,-0.00,31.53
27680192,1959,1,213008,242852,0.60,-0.84,9.95,-0.03,-0.01,-0.00,31.53
27720188,1931,1,212865,241571,0.61,-0.83,9.96,-0.03,-0.01,-0.00,31.53
27760192,1956,1,212341,239991,0.61,-0.84,9.95,-0.03,-0.01,-0.00,31.53
27800191,1940,1,211941,239425,0.62,-0.84,9.96,-0.03,-0.01,-0.00,31.53
27840192,1949,1,211857,239718,0.61,-0.83,9.94,-0.04,-0.01,-0.00,31.53
27880191,1927,1,211960,239954,0.60,-0.83,9.96,-0.03,-0.01,-0.00,31.53
27920192,1947,1,211999,240131,0.59,-0.81,9.96,-0.03,-0.01,-0.00,31.53
27960192,1947,1,212088,240322,0.62,-0.83,9.96,-0.03,-0.01,-0.00,31.53
28000192,1958,1,212157,240605,0.61,-0.85,9.96,-0.03,-0.01,-0.00,31.53
28040191,1926,1,212210,241004,0.62,-0.81,9.95,-0.03,-0.01,-0.00,31.53
28080191,1936,1,212365,241292,0.62,-0.83,9.96,-0.03,-0.01,-0.00,31.53
28120192,1946,1,212440,241430,0.60,-0.84,9.96,-0.03,-0.01,-0.00,31.53
28160192,1953,1,212548,241622,0.60,-0.83,9.96,-0.03,-0.01,-0.00,31.53
28200189,1936,1,212672,242061,0.62,-0.84,9.94,-0.04,-0.01,-0.01,31.53
28240192,1942,1,212753,242510,0.60,-0.83,10.00,-0.04,-0.01,-0.00,31.53
28280188,1941,1,212902,242804,0.60,-0.84,9.99,-0.03,-0.01,-0.00,31.53
28320878,1920,1,213006,242829,0.59,-0.83,9.96,-0.03,-0.01,-0.00,31.61
28361189,1917,1,213022,242923,0.64,-0.82,9.98,-0.03,-0.01,-0.00,31.61
28401191,1909,1,213104,243252,0.61,-0.85,9.96,-0.03,-0.01,-0.00,31.61
28441192,1895,1,213231,243591,0.62,-0.83,9.96,-0.04,-0.01,-0.00,31.61
28481192,1921,1,213207,242995,0.62,-0.82,9.96,-0.04,-0.01,-0.00,31.61
28521192,1913,1,212861,241771,0.61,-0.81,9.97,-0.03,-0.01,-0.00,31.61
28561191,1878,1,212475,240978,0.59,-0.82,9.97,-0.03,-0.01,-0.01,31.61
28601192,1917,1,212406,240907,0.60,-0.84,10.00,-0.03,-0.01,-0.00,31.61
28641192,1908,1,212467,241184,0.60,-0.81,9.93,-0.04,-0.01,-0.01,31.61
28681189,1920,1,212591,241593,0.61,-0.84,9.96,-0.04,-0.01,-0.00,31.61
28721192,1906,1,212705,241872,0.60,-0.83,9.94,-0.03,-0.01,-0.00,31.61
28761189,1920,1,212832,241911,0.61,-0.83,9.98,-0.03,-0.01,-0.00,31.61
28801192,1914,1,212875,241980,0.61,-0.83,9.94,-0.03,-0.01,-0.00,31.61
28841220,1909,1,212978,242322,0.63,-0.83,9.94,-0.03,-0.01,-0.01,31.61
28881192,1916,1,213016,242679,0.60,-0.82,9.98,-0.03,-0.01,-0.00,31.61
28921189,1906,1,213070,242783,0.61,-0.82,9.98,-0.03,-0.01,-0.00,31.61
28961192,1911,1,213128,242730,0.60,-0.83,9.96,-0.03,-0.01,-0.00,31.61
29001189,1914,1,213139,242885,0.60,-0.84,9.94,-0.03,-0.01,-0.00,31.61
29041221,1902,1,213200,243199,0.61,-0.85,9.96,-0.04,-0.01,-0.00,31.61
29081192,1902,1,213235,243480,0.62,-0.83,9.96,-0.03,-0.01,-0.00,31.61
29121192,1904,1,213259,243511,0.61,-0.84,9.96,-0.03,-0.01,-0.00,31.61
29161191,1892,1,213261,243528,0.63,-0.84,9.96,-0.03,-0.01,-0.00,31.61
29201192,1899,1,213270,243118,0.60,-0.83,9.96,-0.03,-0.01,-0.00,31.61
29241189,1904,1,212945,241875,0.60,-0.84,9.96,-0.03,-0.01,-0.00,31.61
29281192,1935,1,212582,240909,0.61,-0.82,9.97,-0.03,-0.01,-0.00,31.61
29321878,1904,1,212288,240428,0.61,-0.82,9.97,-0.03,-0.01,-0.00,31.39
29360192,1936,1,212198,240204,0.61,-0.83,9.98,-0.03,-0.01,-0.00,31.39
29400191,1936,1,212182,240386,0.62,-0.83,9.98,-0.03,-0.01,-0.00,31.39
29440192,1928,1,212311,240891,0.61,-0.82,9.96,-0.03,-0.01,-0.01,31.39
29480192,1931,1,212394,241109,0.60,-0.84,9.95,-0.03,-0.01,-0.00,31.39
29520192,1919,1,212430,240942,0.62,-0.85,9.96,-0.03,-0.01,-0.00,31.39
29560191,1913,1,212420,240959,0.62,-0.82,9.97,-0.03,-0.01,-0.00,31.39
29600192,1936,1,212392,241256,0.61,-0.83,9.96,-0.03,-0.01,-0.00,31.39
29640192,1905,1,212460,241506,0.60,-0.83,9.96,-0.03,-0.01,-0.00,31.39
29680192,1896,1,212541,241616,0.59,-0.83,9.96,-0.03,-0.01,-0.00,31.39
29720192,1904,1,212596,241608,0.60,-0.84,9.96,-0.03,-0.01,-0.00,31.39
29760192,1895,1,212603,241879,0.60,-0.84,9.94,-0.03,-0.01,-0.00,31.39
29800189,1922,1,212645,242254,0.61,-0.82,9.96,-0.03,-0.01,-0.00,31.39
29840192,1904,1,212747,242575,0.60,-0.82,9.93,-0.04,-0.01,-0.01,31.39
29880189,1914,1,212833,242680,0.59,-0.82,9.98,-0.03,-0.01,-0.00,31.39
29920192,1907,1,212897,242762,0.62,-0.81,9.95,-0.03,-0.01,-0.00,31.39
29960191,1909,1,212920,242538,0.61,-0.83,9.98,-0.03,-0.01,-0.01,31.39
30000192,1911,1,212658,241274,0.60,-0.82,9.96,-0.03,-0.01,-0.00,31.39
30040189,1929,1,212222,240052,0.60,-0.83,9.97,-0.03,-0.01,-0.00,31.39
30080192,1923,1,211954,239316,0.60,-0.82,9.96,-0.03,-0.01,-0.00,31.39
30120189,1930,1,211786,238958,0.62,-0.83,9.95,-0.03,-0.01,-0.00,31.39
30160192,1923,1,211823,239213,0.61,-0.82,9.96,-0.03,-0.01,-0.00,31.39
30200191,1921,1,211988,239914,0.61,-0.83,9.98,-0.04,-0.01,-0.01,31.39
30240192,1929,1,212230,240290,0.59,-0.84,9.95,-0.03,-0.01,-0.00,31.39
30280192,1914,1,212326,240214,0.61,-0.82,9.93,-0.03,-0.01,-0.00,31.39
30320191,1910,1,212310,240261,0.62,-0.83,9.96,-0.03,-0.01,-0.00,31.39
30360878,1890,1,212375,240574,0.60,-0.84,9.95,-0.03,-0.01,-0.00,31.55
30399192,1970,1,212507,241143,0.59,-0.81,9.93,-0.03,-0.01,-0.01,31.55
30439192,1973,1,212637,241587,0.59,-0.83,9.96,-0.03,-0.01,-0.01,31.55
30479195,1949,1,212734,241694,0.60,-0.83,9.97,-0.03,-0.01,-0.00,31.55
30519189,1978,1,212777,241757,0.62,-0.85,9.95,-0.03,-0.01,-0.00,31.55
30559191,1971,1,212842,242036,0.62,-0.83,9.96,-0.03,-0.01,-0.01,31.55
30599192,1974,1,212912,242477,0.61,-0.82,9.94,-0.04,-0.01,-0.01,31.55
30639191,1955,1,213047,242758,0.60,-0.82,9.98,-0.03,-0.01,-0.00,31.55
30679203,1950,1,213137,242707,0.62,-0.83,9.95,-0.03,-0.01,-0.00,31.55
30719192,1968,1,213080,242060,0.62,-0.84,9.96,-0.03,-0.01,-0.00,31.55
30759192,1936,1,212670,240512,0.62,-0.85,9.93,-0.03,-0.01,-0.00,31.55
30799192,1952,1,212153,239605,0.62,-0.84,9.93,-0.04,-0.01,-0.00,31.55
30839192,1943,1,211923,239365,0.60,-0.82,10.00,-0.04,-0.01,-0.00,31.55
30879192,1936,1,211911,239148,0.59,-0.82,9.96,-0.03,-0.01,-0.00,31.55
30920191,1904,1,211782,238987,0.60,-0.83,9.96,-0.03,-0.01,-0.00,31.55
30960192,1902,1,211834,239505,0.62,-0.85,9.94,-0.03,-0.01,-0.00,31.55
31000192,1900,1,212067,240058,0.59,-0.82,9.96,-0.03,-0.01,-0.00,31.55
31040192,1894,1,212158,240219,0.59,-0.84,9.97,-0.03,-0.01,-0.00,31.55
31080191,1904,1,212139,239907,0.60,-0.82,9.96,-0.03,-0.01,-0.00,31.55
31120192,1886,1,212060,239879,0.61,-0.83,9.93,-0.03,-0.01,-0.00,31.55
31160192,1919,1,212107,240266,0.61,-0.82,9.94,-0.03,-0.01,-0.01,31.55
31200192,1901,1,212255,240957,0.62,-0.82,9.93,-0.04,-0.01,-0.01,31.55
31240192,1898,1,212425,241354,0.58,-0.83,10.00,-0.03,-0.01,-0.00,31.55
31280192,1917,1,212536,241466,0.59,-0.83,9.99,-0.03,-0.01,-0.00,31.55
31320192,1930,1,212537,241494,0.61,-0.82,9.96,-0.03,-0.01,-0.00,31.55
31360878,1899,1,212577,241741,0.61,-0.83,9.94,-0.03,-0.01,-0.00,31.61
31399191,1932,1,212685,242079,0.61,-0.84,9.94,-0.03,-0.01,-0.00,31.61
31439192,1933,1,212757,242037,0.59,-0.83,9.97,-0.03,-0.01,-0.00,31.61
31479191,1926,1,212573,240739,0.61,-0.82,9.97,-0.03,-0.01,-0.00,31.61
31519191,1946,1,212003,238948,0.62,-0.82,9.96,-0.03,-0.01,-0.01,31.61
31559192,1936,1,211635,238356,0.61,-0.85,10.00,-0.03,-0.01,-0.00,31.61
31599192,1928,1,211608,238636,0.59,-0.83,9.95,-0.04,-0.01,-0.00,31.61
31639192,1902,1,211754,239000,0.60,-0.83,9.96,-0.03,-0.01,-0.00,31.61
31679192,1934,1,211790,239218,0.59,-0.82,9.95,-0.03,-0.01,-0.00,31.61
31719191,1920,1,211873,239413,0.60,-0.82,9.96,-0.03,-0.01,-0.00,31.61
31759192,1899,1,211966,239780,0.60,-0.85,9.97,-0.03,-0.01,-0.00,31.61
31799189,1926,1,212069,240152,0.60,-0.84,9.96,-0.04,-0.01,-0.00,31.61
31839192,1922,1,212101,240394,0.61,-0.82,9.94,-0.03,-0.01,-0.01,31.61
31879192,1923,1,212226,240651,0.59,-0.83,9.97,-0.03,-0.01,-0.00,31.61
31920192,1910,1,212358,240889,0.62,-0.81,9.96,-0.03,-0.01,-0.00,31.61
31960191,1920,1,212450,241332,0.62,-0.83,9.94,-0.03,-0.01,-0.00,31.61
32000192,1913,1,212544,241720,0.59,-0.83,9.97,-0.03,-0.01,-0.01,31.61
32040191,1925,1,212662,241900,0.60,-0.82,9.95,-0.03,-0.01,-0.00,31.61
32080192,1903,1,212711,241933,0.63,-0.84,9.96,-0.03,-0.01,-0.00,31.61
32120205,1894,1,212792,242109,0.60,-0.84,9.97,-0.03,-0.01,-0.00,31.61
32160192,1920,1,212776,241730,0.62,-0.82,9.93,-0.03,-0.01,-0.00,31.61
32200192,1905,1,212372,240528,0.61,-0.83,9.96,-0.03,-0.01,-0.00,31.61
32240192,1902,1,211961,239586,0.60,-0.82,9.97,-0.03,-0.01,-0.00,31.61
32280189,1910,1,211732,238930,0.62,-0.82,9.96,-0.03,-0.01,-0.00,31.61
32320223,1927,1,211569,238790,0.62,-0.84,9.96,-0.03,-0.01,-0.01,31.61
32360878,1901,1,211697,239249,0.61,-0.83,9.95,-0.03,-0.01,-0.00,31.35
32399192,1907,1,211892,239928,0.61,-0.84,9.95,-0.03,-0.01,-0.01,31.35
32439192,1915,1,212047,240104,0.58,-0.82,9.95,-0.03,-0.01,-0.00,31.35
32479192,1927,1,212068,239963,0.61,-0.84,9.95,-0.03,-0.01,-0.00,31.35
32519192,1936,1,212081,239849,0.62,-0.81,9.97,-0.03,-0.01,-0.00,31.35
32559192,1927,1,212068,240044,0.63,-0.83,9.98,-0.03,-0.01,-0.01,31.35
32599191,1922,1,212156,240502,0.62,-0.82,9.96,-0.04,-0.01,-0.00,31.35
32639192,1935,1,212286,240844,0.59,-0.82,9.98,-0.03,-0.01,-0.00,31.35
32679191,1936,1,212381,240844,0.59,-0.82,9.98,-0.03,-0.01,-0.00,31.35
32719192,1925,1,212422,240897,0.61,-0.84,9.96,-0.03,-0.01,-0.00,31.35
32759191,1923,1,212463,241206,0.62,-0.83,9.92,-0.03,-0.01,-0.00,31.35
32799192,1920,1,212575,241576,0.60,-0.84,9.96,-0.03,-0.01,-0.01,31.35
32839189,1925,1,212596,240971,0.59,-0.80,9.95,-0.03,-0.01,-0.00,31.35
32879192,1899,1,212183,239063,0.59,-0.82,9.99,-0.03,-0.01,-0.00,31.35
32919192,1905,1,211648,237712,0.62,-0.83,9.96,-0.03,-0.01,-0.00,31.35
32958192,1965,1,211407,237424,0.62,-0.82,9.96,-0.03,-0.01,-0.00,31.35
32998189,1947,1,211527,237843,0.62,-0.82,9.94,-0.03,-0.01,-0.01,31.35
33038192,1951,1,211638,238286,0.61,-0.83,9.97,-0.04,-0.01,-0.01,31.35
33078192,1951,1,211766,238589,0.60,-0.82,9.96,-0.03,-0.01,-0.00,31.35
33118192,1943,1,211832,238657,0.60,-0.85,9.96,-0.03,-0.01,-0.00,31.35
33158189,1962,1,211854,238826,0.61,-0.82,9.95,-0.03,-0.01,-0.00,31.35
33198192,1949,1,211920,239254,0.62,-0.82,9.97,-0.04,-0.01,-0.01,31.35
33238191,1955,1,212084,239703,0.61,-0.83,9.96,-0.03,-0.01,-0.01,31.35
33278192,1953,1,212175,239901,0.60,-0.84,9.96,-0.03,-0.01,-0.00,31.35
33318189,1957,1,212235,239941,0.61,-0.84,9.95,-0.03,-0.01,-0.00,31.35
33358192,1952,1,212306,240243,0.59,-0.85,9.93,-0.03,-0.01,-0.00,31.35
33398878,1923,1,212452,240774,0.62,-0.83,9.95,-0.04,-0.01,-0.00,31.35
33439192,1937,1,212572,241228,0.61,-0.83,9.94,-0.03,-0.01,-0.00,31.35
33479189,1920,1,212689,241410,0.61,-0.82,9.96,-0.03,-0.01,-0.00,31.35
33519192,1915,1,212704,240966,0.60,-0.81,9.96,-0.03,-0.01,-0.00,31.35
33559189,1919,1,212328,239355,0.62,-0.82,9.97,-0.03,-0.01,-0.00,31.35
33599192,1904,1,211788,238255,0.60,-0.83,9.94,-0.03,-0.01,-0.01,31.35
33639189,1901,1,211573,237939,0.61,-0.82,9.98,-0.03,-0.01,-0.00,31.35
33679192,1904,1,211546,237819,0.58,-0.83,9.97,-0.03,-0.01,-0.00,31.35
33719191,1900,1,211491,237594,0.62,-0.82,9.96,-0.03,-0.01,-0.00,31.35
33759198,1905,1,211533,237959,0.61,-0.83,9.95,-0.03,-0.01,-0.00,31.35
33799192,1890,1,211699,238600,0.62,-0.84,9.96,-0.03,-0.01,-0.01,31.35
33839192,1915,1,211874,239052,0.61,-0.82,9.97,-0.03,-0.01,-0.01,31.35
33879192,1907,1,211966,239125,0.61,-0.84,9.98,-0.03,-0.01,-0.01,31.35
33919192,1904,1,212007,239135,0.62,-0.84,9.96,-0.03,-0.01,-0.00,31.35
33960191,1900,1,211989,239302,0.62,-0.84,9.95,-0.03,-0.01,-0.00,31.35
33998192,1938,1,212126,239824,0.61,-0.82,9.96,-0.03,-0.01,-0.01,31.35
34038192,1951,1,212258,240254,0.62,-0.82,9.96,-0.04,-0.01,-0.01,31.35
34078192,1915,1,212396,240518,0.61,-0.82,9.96,-0.03,-0.01,-0.01,31.35
34118192,1934,1,212442,240619,0.60,-0.83,9.95,-0.03,-0.01,-0.00,31.35
34158212,1927,1,212537,240809,0.61,-0.85,9.94,-0.03,-0.01,-0.00,31.35
34198192,1920,1,212620,241285,0.63,-0.82,9.96,-0.03,-0.01,-0.01,31.35
34238192,1905,1,212721,241083,0.63,-0.82,9.95,-0.03,-0.01,-0.00,31.35
34278192,1927,1,212408,239567,0.61,-0.83,9.95,-0.03,-0.01,-0.00,31.35
34318192,1937,1,211908,238070,0.62,-0.83,9.96,-0.03,-0.01,-0.00,31.35
34358191,1929,1,211585,237489,0.59,-0.81,9.96,-0.03,-0.01,-0.00,31.35
34398192,1927,1,211571,237566,0.61,-0.83,9.96,-0.03,-0.01,-0.00,31.35
34438878,1886,1,211763,238092,0.62,-0.82,9.96,-0.03,-0.01,-0.00,31.53
34479192,1897,1,211924,238503,0.61,-0.83,9.96,-0.03,-0.01,-0.01,31.53
34519192,1910,1,212050,238742,0.61,-0.84,9.96,-0.03,-0.01,-0.00,31.53
34559191,1902,1,212046,238887,0.61,-0.83,9.93,-0.03,-0.01,-0.00,31.53
34599191,1911,1,212124,239253,0.60,-0.83,9.94,-0.03,-0.01,-0.01,31.53
34639192,1895,1,212252,239778,0.61,-0.83,9.95,-0.04,-0.01,-0.00,31.53
34679191,1919,1,212368,240139,0.60,-0.82,9.93,-0.03,-0.01,-0.01,31.53
34719192,1937,1,212472,240274,0.61,-0.81,9.95,-0.03,-0.01,-0.00,31.53
34759191,1936,1,212570,240441,0.61,-0.84,9.95,-0.03,-0.01,-0.00,31.53
34799192,1905,1,212648,240763,0.60,-0.85,9.94,-0.03,-0.01,-0.00,31.53
34839189,1894,1,212757,241104,0.62,-0.82,9.96,-0.03,-0.01,-0.00,31.53
34879192,1919,1,212822,241282,0.61,-0.82,9.97,-0.03,-0.01,-0.00,31.53
34919192,1898,1,212761,241234,0.61,-0.82,9.94,-0.03,-0.01,-0.00,31.53
34959191,1926,1,212706,240757,0.62,-0.82,9.96,-0.03,-0.01,-0.00,31.53
34998191,1932,1,212391,239314,0.62,-0.80,9.93,-0.03,-0.01,-0.00,31.53
35038192,1953,1,211947,238391,0.61,-0.85,9.96,-0.04,-0.01,-0.00,31.53
35078192,1936,1,211760,237958,0.62,-0.82,9.94,-0.03,-0.01,-0.00,31.53
35118192,1903,1,211687,237674,0.62,-0.84,9.93,-0.03,-0.01,-0.01,31.53
35158191,1907,1,211574,237622,0.62,-0.83,9.94,-0.03,-0.01,-0.00,31.53
35198192,1915,1,211653,238255,0.61,-0.84,9.99,-0.03,-0.01,-0.01,31.53
35238192,1936,1,211865,238803,0.58,-0.80,9.97,-0.03,-0.01,-0.00,31.53
35278192,1921,1,211966,238933,0.59,-0.81,9.96,-0.03,-0.01,-0.00,31.53
35318191,1931,1,211937,238730,0.62,-0.82,9.96,-0.03,-0.01,-0.00,31.53
35358192,1931,1,211917,238765,0.60,-0.82,9.97,-0.03,-0.01,-0.00,31.53
35398191,1904,1,211964,238993,0.61,-0.85,9.97,-0.03,-0.01,-0.00,31.53
35438192,1889,1,212071,239350,0.60,-0.84,9.96,-0.04,-0.01,-0.00,31.53
35478875,1872,1,212097,239498,0.59,-0.83,9.96,-0.03,-0.01,-0.01,31.57
35517192,1957,1,212112,239354,0.60,-0.85,9.96,-0.03,-0.01,-0.00,31.57
35557189,1950,1,212161,239356,0.62,-0.83,9.94,-0.03,-0.01,-0.00,31.57
35597236,1971,1,212220,239554,0.62,-0.83,9.94,-0.03,-0.01,-0.00,31.57
35637189,1977,1,212329,239356,0.59,-0.84,9.96,-0.04,-0.01,-0.01,31.57
35677192,1966,1,211970,237604,0.61,-0.83,9.99,-0.03,-0.01,-0.00,31.57
35717189,1942,1,211353,235854,0.62,-0.83,9.94,-0.03,-0.01,-0.00,31.57
35757192,1944,1,211006,235373,0.62,-0.83,9.98,-0.03,-0.01,-0.01,31.57
35797212,1946,1,210972,235764,0.61,-0.84,9.96,-0.03,-0.01,-0.01,31.57
35837192,1963,1,211111,236228,0.60,-0.82,9.94,-0.03,-0.01,-0.00,31.57
35877189,1956,1,211218,236674,0.59,-0.82,9.96,-0.03,-0.01,-0.00,31.57
35917192,1941,1,211350,236690,0.60,-0.85,9.97,-0.03,-0.01,-0.00,31.57
35957189,1942,1,211389,236727,0.62,-0.81,9.96,-0.03,-0.01,-0.00,31.57
35997192,1953,1,211455,237093,0.62,-0.85,9.97,-0.03,-0.01,-0.01,31.57
36038191,1905,1,211544,237662,0.62,-0.82,9.95,-0.04,-0.01,-0.00,31.57
36078192,1915,1,211712,237993,0.59,-0.83,9.97,-0.03,-0.01,-0.00,31.57
36118191,1915,1,211731,238129,0.60,-0.82,9.96,-0.03,-0.01,-0.01,31.57
36158192,1936,1,211852,238303,0.62,-0.80,9.94,-0.03,-0.01,-0.00,31.57
36198189,1911,1,211968,238736,0.61,-0.83,9.96,-0.03,-0.01,-0.01,31.57
36238192,1936,1,212106,239249,0.60,-0.82,9.94,-0.03,-0.01,-0.00,31.57
36278189,1936,1,212194,239499,0.58,-0.84,9.97,-0.03,-0.01,-0.01,31.57
36318192,1931,1,212287,239533,0.62,-0.82,9.95,-0.03,-0.01,-0.00,31.57
36358191,1925,1,212249,238960,0.62,-0.81,9.94,-0.03,-0.01,-0.00,31.57
36398192,1904,1,211804,237156,0.61,-0.85,9.94,-0.03,-0.01,-0.00,31.57
36438191,1934,1,211219,235815,0.63,-0.81,9.98,-0.03,-0.01,-0.00,31.57
36478192,1923,1,210972,235347,0.61,-0.84,10.00,-0.03,-0.01,-0.00,31.57
36518875,1925,1,210834,235108,0.62,-0.82,9.95,-0.03,-0.01,-0.01,31.33
36557192,1930,1,210776,234999,0.61,-0.84,9.96,-0.03,-0.01,-0.00,31.33
36597192,1938,1,210892,235656,0.64,-0.82,9.94,-0.03,-0.01,-0.00,31.33
36637192,1935,1,211118,236383,0.60,-0.84,9.93,-0.03,-0.01,-0.00,31.33
36677189,1944,1,211293,236585,0.61,-0.81,9.94,-0.03,-0.01,-0.00,31.33
36717192,1925,1,211332,236413,0.62,-0.83,9.95,-0.03,-0.01,-0.00,31.33
36757191,1936,1,211327,236421,0.60,-0.83,9.96,-0.03,-0.01,-0.00,31.33
36797192,1947,1,211443,236871,0.60,-0.83,9.96,-0.03,-0.01,-0.00,31.33
36837189,1905,1,211616,237483,0.62,-0.81,9.95,-0.03,-0.01,-0.01,31.33
36877192,1968,1,211792,237936,0.60,-0.83,9.96,-0.03,-0.01,-0.01,31.33
36917189,1951,1,211912,238095,0.61,-0.83,9.95,-0.03,-0.01,-0.00,31.33
36957192,1946,1,211940,238182,0.60,-0.84,9.96,-0.03,-0.01,-0.00,31.33
36997189,1940,1,212025,238550,0.60,-0.83,9.96,-0.03,-0.01,-0.00,31.33
37038192,1910,1,212161,239166,0.61,-0.81,9.96,-0.03,-0.01,-0.00,31.33
37078191,1904,1,212284,239520,0.59,-0.82,9.98,-0.03,-0.01,-0.00,31.33
37118192,1927,1,212271,238650,0.60,-0.83,9.95,-0.03,-0.01,-0.00,31.33
37158189,1950,1,211726,236532,0.61,-0.83,9.95,-0.03,-0.01,-0.00,31.33
37198192,1923,1,211204,235415,0.62,-0.84,9.95,-0.03,-0.01,-0.00,31.33
37238218,1936,1,211022,235495,0.64,-0.82,9.95,-0.03,-0.01,-0.00,31.33
37278192,1931,1,211115,235745,0.58,-0.82,9.94,-0.03,-0.01,-0.00,31.33
37318191,1936,1,211119,235941,0.61,-0.84,9.96,-0.03,-0.01,-0.00,31.33
37358192,1884,1,211202,236443,0.60,-0.84,9.97,-0.03,-0.01,-0.00,31.33
37398189,1894,1,211390,237031,0.60,-0.84,9.96,-0.03,-0.01,-0.00,31.33
37438232,1893,1,211551,237476,0.62,-0.83,9.96,-0.03,-0.01,-0.00,31.33
37478192,1898,1,211703,237746,0.60,-0.84,9.95,-0.03,-0.01,-0.00,31.33
37518878,1887,1,211837,238019,0.61,-0.83,9.96,-0.03,-0.01,-0.00,31.35
37557192,1917,1,211954,238403,0.62,-0.83,9.97,-0.03,-0.01,-0.00,31.35
37597191,1906,1,212084,238852,0.60,-0.83,9.97,-0.03,-0.01,-0.00,31.35
37637189,1919,1,212231,239262,0.60,-0.83,9.95,-0.03,-0.01,-0.00,31.35
37677192,1919,1,212394,239639,0.59,-0.82,9.96,-0.03,-0.01,-0.00,31.35
37717192,1899,1,212462,239898,0.60,-0.83,9.99,-0.03,-0.01,-0.00,31.35
37757192,1919,1,212569,240266,0.62,-0.82,9.95,-0.03,-0.01,-0.01,31.35
37797192,1879,1,212716,240630,0.62,-0.83,9.95,-0.03,-0.01,-0.00,31.35
37837192,1919,1,212836,240872,0.59,-0.82,9.96,-0.03,-0.01,-0.00,31.35
37877191,1922,1,212838,240082,0.61,-0.83,9.98,-0.03,-0.01,-0.00,31.35
37917192,1926,1,212365,238481,0.62,-0.83,9.96,-0.03,-0.01,-0.01,31.35
37957192,1917,1,211948,237669,0.63,-0.82,9.97,-0.03,-0.01,-0.00,31.35
37997192,1904,1,211811,237481,0.63,-0.83,9.93,-0.03,-0.01,-0.00,31.35
38037192,1904,1,211863,237711,0.61,-0.83,9.97,-0.03,-0.01,-0.00,31.35
38077192,1904,1,211941,237958,0.62,-0.84,9.92,-0.03,-0.01,-0.00,31.35
38117191,1923,1,212119,238317,0.59,-0.85,9.96,-0.03,-0.01,-0.00,31.35
38157192,1923,1,212212,238492,0.59,-0.83,9.96,-0.03,-0.01,-0.00,31.35
38197192,1907,1,212250,238645,0.61,-0.82,9.94,-0.03,-0.01,-0.00,31.35
38237192,1945,1,212259,238698,0.61,-0.83,9.96,-0.03,-0.01,-0.00,31.35
38277192,1911,1,212309,238923,0.61,-0.82,9.96,-0.03,-0.01,-0.00,31.35
38317192,1925,1,212374,239192,0.61,-0.83,9.99,-0.03,-0.01,-0.00,31.35
38357191,1951,1,212446,239461,0.62,-0.81,9.96,-0.03,-0.01,-0.01,31.35
38397192,1937,1,212492,239692,0.62,-0.84,9.95,-0.03,-0.01,-0.00,31.35
38437191,1936,1,212552,239872,0.61,-0.82,9.96,-0.03,-0.01,-0.01,31.35
38477192,1929,1,212598,240016,0.60,-0.82,9.94,-0.03,-0.01,-0.01,31.35
38517189,1917,1,212674,240194,0.60,-0.83,9.98,-0.03,-0.01,-0.00,31.35
38557878,1914,1,212760,240200,0.62,-0.82,9.96,-0.03,-0.01,-0.01,31.25
38596192,1953,1,212556,239004,0.62,-0.85,9.95,-0.03,-0.01,-0.00,31.25
38636192,1941,1,211978,237243,0.62,-0.83,9.96,-0.03,-0.01,-0.01,31.25
38676192,1946,1,211521,236353,0.62,-0.82,9.93,-0.03,-0.01,-0.01,31.25
38716192,1963,1,211365,236138,0.61,-0.82,9.96,-0.03,-0.01,-0.00,31.25
38756191,1946,1,211316,236250,0.61,-0.82,9.97,-0.03,-0.01,-0.00,31.25
38796192,1970,1,211420,236678,0.62,-0.81,9.95,-0.03,-0.01,-0.00,31.25
38836192,1946,1,211582,237170,0.59,-0.82,9.98,-0.03,-0.01,-0.00,31.25
38876212,1965,1,211674,237409,0.60,-0.83,9.95,-0.03,-0.01,-0.00,31.25
38916189,1951,1,211743,237560,0.60,-0.85,9.97,-0.03,-0.01,-0.00,31.25
38956192,1936,1,211796,237689,0.60,-0.81,9.95,-0.03,-0.01,-0.00,31.25
38996189,1936,1,211823,237908,0.62,-0.83,9.94,-0.03,-0.01,-0.00,31.25
39036192,1936,1,211889,238205,0.60,-0.81,9.95,-0.03,-0.01,-0.00,31.25
39076209,1959,1,211991,238455,0.62,-0.83,9.97,-0.03,-0.01,-0.00,31.25
39116192,1946,1,212078,238706,0.62,-0.82,9.96,-0.03,-0.01,-0.00,31.25
39156192,1937,1,212172,238985,0.60,-0.83,9.95,-0.03,-0.01,-0.00,31.25
39196192,1923,1,212273,239279,0.61,-0.83,9.97,-0.03,-0.01,-0.00,31.25
39236192,1949,1,212324,239512,0.59,-0.82,9.95,-0.03,-0.01,-0.00,31.25
39276192,1936,1,212420,239720,0.60,-0.83,9.95,-0.03,-0.01,-0.00,31.25
39316189,1931,1,212454,239071,0.60,-0.82,9.99,-0.03,-0.01,-0.00,31.25
39356192,1918,1,211915,237044,0.62,-0.83,9.94,-0.03,-0.01,-0.00,31.25
39396192,1934,1,211366,235739,0.62,-0.82,9.95,-0.03,-0.01,-0.00,31.25
39436192,1926,1,211130,235430,0.60,-0.84,9.96,-0.03,-0.01,-0.00,31.25
39476189,1935,1,211147,235597,0.61,-0.82,9.97,-0.03,-0.01,-0.00,31.25
39516192,1919,1,211234,235759,0.62,-0.82,9.95,-0.03,-0.01,-0.00,31.25
39556192,1916,1,211364,236298,0.60,-0.81,9.97,-0.03,-0.01,-0.00,31.25
39596879,1891,1,211544,236684,0.60,-0.82,9.94,-0.03,-0.01,-0.00,31.25
39637189,1904,1,211637,236852,0.60,-0.83,9.97,-0.03,-0.01,-0.00,31.25
39677192,1918,1,211625,236921,0.60,-0.82,9.94,-0.03,-0.01,-0.00,31.25
39717189,1908,1,211721,237257,0.61,-0.84,9.93,-0.03,-0.01,-0.00,31.25
39757192,1922,1,211868,237693,0.60,-0.83,9.96,-0.03,-0.01,-0.01,31.25
39797189,1930,1,211975,238074,0.62,-0.84,9.96,-0.03,-0.01,-0.00,31.25
39837192,1926,1,212108,238371,0.60,-0.85,9.94,-0.03,-0.01,-0.00,31.25
39877189,1929,1,212182,238683,0.61,-0.83,9.98,-0.03,-0.01,-0.00,31.25
39917192,1925,1,212249,238946,0.62,-0.81,9.97,-0.03,-0.01,-0.00,31.25
39957191,1908,1,212292,239166,0.62,-0.82,9.98,-0.03,-0.01,-0.00,31.25
39997192,1921,1,212369,239406,0.61,-0.81,9.97,-0.03,-0.01,-0.00,31.25
40037192,1895,1,212437,239546,0.61,-0.84,9.95,-0.03,-0.01,-0.00,31.25
40077192,1911,1,212317,238340,0.60,-0.83,9.96,-0.03,-0.01,-0.00,31.25
40117189,1897,1,211693,236524,0.60,-0.85,9.94,-0.03,-0.01,-0.01,31.25
40157192,1893,1,211280,235747,0.62,-0.84,9.96,-0.03,-0.01,-0.01,31.25
40197191,1927,1,211105,235774,0.62,-0.82,9.94,-0.03,-0.01,-0.01,31.25
40237192,1888,1,211207,236001,0.62,-0.82,9.95,-0.03,-0.01,-0.01,31.25
40277192,1920,1,211316,236460,0.61,-0.81,9.95,-0.03,-0.01,-0.01,31.25
40317192,1911,1,211519,237013,0.61,-0.82,9.94,-0.03,-0.01,-0.00,31.25
40357192,1884,1,211659,237462,0.60,-0.83,9.96,-0.03,-0.01,-0.00,31.25
40397192,1919,1,211769,237690,0.60,-0.85,9.96,-0.03,-0.01,-0.01,31.25
40437189,1911,1,211836,237988,0.62,-0.83,9.97,-0.03,-0.01,-0.00,31.25
40477192,1916,1,211941,238400,0.58,-0.84,9.96,-0.03,-0.01,-0.00,31.25
40517205,1915,1,212081,238757,0.62,-0.82,9.94,-0.03,-0.01,-0.00,31.25
40557192,1904,1,212217,239107,0.62,-0.84,9.93,-0.03,-0.01,-0.01,31.25
40595878,1904,1,212368,239504,0.60,-0.83,9.97,-0.03,-0.01,-0.01,31.25
40636192,1904,1,212494,239851,0.62,-0.83,9.94,-0.03,-0.01,-0.00,31.25
40676191,1937,1,212622,240201,0.62,-0.82,9.97,-0.03,-0.01,-0.01,31.25
40716205,1917,1,212731,240596,0.61,-0.83,9.97,-0.03,-0.01,-0.00,31.25
40756192,1917,1,212886,241024,0.60,-0.85,9.92,-0.03,-0.01,-0.00,31.25
40796192,1919,1,213001,241041,0.62,-0.84,9.95,-0.03,-0.01,-0.00,31.25
40836191,1914,1,212862,239724,0.61,-0.82,9.96,-0.03,-0.01,-0.00,31.25
40876192,1916,1,212302,238181,0.61,-0.85,9.94,-0.03,-0.01,-0.00,31.25
40916192,1921,1,211944,237524,0.59,-0.83,9.97,-0.03,-0.01,-0.00,31.25
40956192,1907,1,211873,237418,0.62,-0.84,9.95,-0.03,-0.01,-0.01,31.25
40996192,1916,1,211823,237516,0.62,-0.82,9.96,-0.03,-0.01,-0.00,31.25
41036192,1919,1,211898,237959,0.61,-0.84,9.95,-0.03,-0.01,-0.00,31.25
41076192,1919,1,212049,238432,0.59,-0.83,9.96,-0.03,-0.01,-0.01,31.25
41116192,1936,1,212124,238558,0.60,-0.82,9.96,-0.03,-0.01,-0.00,31.25
41156189,1903,1,212194,238778,0.63,-0.85,9.95,-0.03,-0.01,-0.00,31.25
41196192,1903,1,212189,238973,0.62,-0.83,9.96,-0.03,-0.01,-0.01,31.25
41236192,1904,1,212326,239169,0.59,-0.81,9.98,-0.03,-0.01,-0.00,31.25
41276192,1917,1,212367,239405,0.60,-0.83,9.95,-0.03,-0.01,-0.00,31.25
41316189,1900,1,212376,239627,0.61,-0.83,9.95,-0.03,-0.01,-0.00,31.25
41356192,1921,1,212462,239837,0.62,-0.82,9.95,-0.03,-0.01,-0.01,31.25
41396192,1943,1,212521,240040,0.61,-0.84,9.96,-0.03,-0.01,-0.00,31.25
41436192,1919,1,212601,240304,0.62,-0.81,9.98,-0.03,-0.01,-0.00,31.25
41476191,1924,1,212666,240613,0.61,-0.84,9.94,-0.03,-0.01,-0.00,31.25
41516192,1923,1,212787,240436,0.62,-0.82,9.95,-0.03,-0.01,-0.00,31.25
41556192,1906,1,212533,238975,0.63,-0.82,9.96,-0.03,-0.01,-0.00,31.25
41596192,1927,1,212032,237916,0.62,-0.82,9.98,-0.03,-0.01,-0.00,31.25
41636878,1904,1,211782,237571,0.62,-0.86,9.97,-0.03,-0.01,-0.00,31.41
41675191,1939,1,211695,237505,0.61,-0.82,9.96,-0.03,-0.01,-0.01,31.41
41715192,1917,1,211695,237616,0.60,-0.82,9.96,-0.03,-0.01,-0.00,31.41
41755192,1927,1,211784,237966,0.60,-0.82,9.95,-0.03,-0.01,-0.01,31.41
41795191,1945,1,211824,238149,0.60,-0.85,9.96,-0.03,-0.01,-0.00,31.41
41835192,1948,1,211870,238113,0.62,-0.83,9.98,-0.03,-0.01,-0.00,31.41
41875192,1938,1,211816,238038,0.61,-0.83,9.95,-0.03,-0.01,-0.00,31.41
41915192,1922,1,211821,238079,0.61,-0.81,9.97,-0.03,-0.01,-0.00,31.41
41955192,1929,1,211815,238220,0.61,-0.82,9.95,-0.03,-0.01,-0.00,31.41
41995192,1913,1,211898,238458,0.60,-0.85,9.98,-0.03,-0.01,-0.00,31.41
42035189,1936,1,211987,238618,0.61,-0.82,9.96,-0.03,-0.01,-0.00,31.41
42075191,1937,1,212010,238776,0.61,-0.83,9.97,-0.03,-0.01,-0.00,31.41
42115192,1934,1,212119,238941,0.61,-0.83,9.97,-0.03,-0.01,-0.00,31.41
42155199,1930,1,212176,239109,0.61,-0.82,9.97,-0.03,-0.01,-0.00,31.41
42195191,1935,1,212240,239278,0.61,-0.82,9.96,-0.03,-0.01,-0.00,31.41
42235192,1927,1,212234,238556,0.61,-0.82,9.96,-0.03,-0.01,-0.01,31.41
42275191,1953,1,211750,236812,0.60,-0.83,9.96,-0.03,-0.01,-0.00,31.41
42315192,1927,1,211223,235645,0.62,-0.81,9.95,-0.03,-0.01,-0.00,31.41
42355242,1943,1,210991,235402,0.62,-0.83,9.97,-0.03,-0.01,-0.00,31.41
42395191,1935,1,210984,235457,0.62,-0.83,9.95,-0.03,-0.01,-0.00,31.41
42435192,1930,1,211028,235676,0.63,-0.83,9.96,-0.03,-0.01,-0.01,31.41
42475192,1947,1,211144,236178,0.61,-0.81,9.96,-0.03,-0.01,-0.00,31.41
42515191,1936,1,211291,236585,0.60,-0.84,9.97,-0.03,-0.01,-0.01,31.41
42555213,1937,1,211365,236739,0.60,-0.84,9.96,-0.03,-0.01,-0.00,31.41
42595188,1931,1,211428,236961,0.61,-0.84,9.97,-0.03,-0.01,-0.00,31.41
42635192,1930,1,211487,237216,0.61,-0.82,9.97,-0.03,-0.01,-0.00,31.41
42675878,1909,1,211537,237485,0.62,-0.80,9.95,-0.03,-0.01,-0.00,31.43
42716192,1910,1,211608,237785,0.61,-0.83,9.97,-0.03,-0.01,-0.00,31.43
42756191,1921,1,211659,238066,0.60,-0.81,9.96,-0.03,-0.01,-0.00,31.43
42796192,1915,1,211757,238258,0.62,-0.83,9.98,-0.03,-0.01,-0.00,31.43
42836192,1914,1,211826,238522,0.60,-0.82,9.97,-0.03,-0.01,-0.00,31.43
42876192,1933,1,211945,238854,0.62,-0.83,9.96,-0.03,-0.01,-0.00,31.43
42916192,1907,1,212039,239079,0.62,-0.82,9.94,-0.03,-0.01,-0.01,31.43
42956192,1915,1,212073,238673,0.60,-0.82,9.95,-0.03,-0.01,-0.00,31.43
42996189,1907,1,211667,236868,0.60,-0.82,9.95,-0.03,-0.01,-0.00,31.43
43036192,1917,1,211059,235559,0.62,-0.83,9.97,-0.03,-0.01,-0.00,31.43
43076192,1920,1,210767,235045,0.61,-0.84,9.95,-0.03,-0.01,-0.01,31.43
43116192,1904,1,210692,235085,0.62,-0.84,9.93,-0.03,-0.01,-0.00,31.43
43156192,1898,1,210738,235202,0.62,-0.82,9.93,-0.03,-0.01,-0.01,31.43
43194191,1969,1,210825,235647,0.59,-0.81,9.96,-0.03,-0.01,-0.00,31.43
43234192,1968,1,211013,236111,0.62,-0.82,9.95,-0.03,-0.01,-0.00,31.43
43274192,1969,1,211103,236275,0.62,-0.83,9.96,-0.03,-0.01,-0.00,31.43
43314191,1968,1,211169,236495,0.61,-0.84,9.97,-0.03,-0.01,-0.00,31.43
43354191,1983,1,211278,236783,0.59,-0.81,9.94,-0.03,-0.01,-0.00,31.43
43394191,1971,1,211432,237119,0.62,-0.82,9.96,-0.03,-0.01,-0.00,31.43
43434192,1968,1,211591,237466,0.64,-0.83,9.92,-0.03,-0.01,-0.00,31.43
43474189,1979,1,211700,237778,0.59,-0.83,9.95,-0.03,-0.01,-0.00,31.43
43514192,1986,1,211841,238072,0.59,-0.82,9.97,-0.03,-0.01,-0.00,31.43
43554192,1991,1,211916,238424,0.60,-0.83,9.94,-0.03,-0.01,-0.00,31.43
43594192,1967,1,212034,238712,0.62,-0.81,9.96,-0.03,-0.01,-0.00,31.43
43634189,1966,1,212080,239111,0.60,-0.84,9.97,-0.03,-0.01,-0.00,31.43
43674192,1967,1,212223,239301,0.60,-0.84,9.95,-0.03,-0.01,-0.00,31.43
43714875,1909,1,212190,238335,0.60,-0.82,9.95,-0.03,-0.01,-0.00,31.47
43755192,1899,1,211618,236678,0.62,-0.80,9.96,-0.03,-0.01,-0.00,31.47
43795195,1927,1,211217,235938,0.62,-0.83,9.95,-0.03,-0.01,-0.00,31.47
43835192,1881,1,211108,235760,0.62,-0.84,9.94,-0.03,-0.01,-0.00,31.47
43875192,1910,1,211078,235662,0.61,-0.83,9.94,-0.03,-0.01,-0.00,31.47
43915192,1909,1,211086,236004,0.61,-0.83,9.96,-0.03,-0.01,-0.00,31.47
43955192,1904,1,211204,236502,0.61,-0.85,9.96,-0.03,-0.01,-0.00,31.47
43995192,1916,1,211342,236774,0.61,-0.85,9.95,-0.03,-0.01,-0.00,31.47
44035192,1920,1,211371,236934,0.63,-0.82,9.96,-0.03,-0.01,-0.00,31.47
44075192,1913,1,211456,237172,0.61,-0.84,9.96,-0.03,-0.01,-0.00,31.47
44115192,1919,1,211519,237530,0.62,-0.83,9.98,-0.03,-0.01,-0.01,31.47
44155192,1911,1,211658,237989,0.62,-0.82,9.97,-0.03,-0.01,-0.00,31.47
44195191,1921,1,211817,238375,0.61,-0.81,9.99,-0.03,-0.01,-0.01,31.47
44235192,1929,1,211917,238680,0.61,-0.81,9.98,-0.03,-0.01,-0.00,31.47
44275191,1922,1,212028,238842,0.60,-0.82,9.96,-0.03,-0.01,-0.00,31.47
44315192,1936,1,212049,239152,0.61,-0.81,9.93,-0.03,-0.01,-0.00,31.47
44355191,1904,1,212142,239672,0.62,-0.83,9.95,-0.03,-0.01,-0.01,31.47
44395191,1903,1,212328,240086,0.60,-0.83,9.97,-0.04,-0.01,-0.01,31.47
44435192,1895,1,212301,239257,0.60,-0.83,9.97,-0.03,-0.01,-0.00,31.47
44475192,1913,1,211795,237809,0.61,-0.81,9.96,-0.03,-0.01,-0.00,31.47
44515191,1855,1,211437,237265,0.61,-0.82,9.97,-0.03,-0.01,-0.01,31.47
44555192,1856,1,211372,237272,0.61,-0.84,9.94,-0.03,-0.01,-0.00,31.47
44595192,1972,1,211343,237313,0.61,-0.84,9.98,-0.03,-0.01,-0.00,31.47
44635191,2001,1,211396,237359,0.61,-0.82,9.96,-0.02,-0.00,-0.00,31.47
44675189,2585,1,211285,236978,0.57,-0.82,10.01,-0.02,0.01,-0.00,31.47
44715858,2255,1,211039,236704,0.62,-0.79,9.92,-0.00,-0.01,0.00,31.67
44754169,2101,1,211194,237107,0.68,-0.68,9.82,-0.04,0.03,-0.01,31.67
44794171,2013,1,210775,236731,0.51,-0.81,9.97,-0.05,0.02,-0.02,31.67
44834172,1755,1,210521,236577,0.54,-0.85,9.97,-0.03,-0.01,-0.00,31.67
44874192,1619,1,210195,236309,0.58,-0.80,9.97,-0.03,-0.01,-0.01,31.67
44914189,1529,1,209962,236004,0.56,-0.80,9.96,-0.03,-0.01,-0.00,31.67
44954192,1489,1,209719,235822,0.53,-0.80,9.98,-0.03,-0.01,-0.01,31.67
44994189,1499,1,209623,235909,0.57,-0.82,9.94,-0.03,-0.01,-0.00,31.67
45035192,1509,1,209544,235960,0.62,-0.81,9.96,-0.03,-0.01,-0.00,31.67
45075192,1577,1,208925,235768,0.56,-0.80,9.94,-0.03,-0.01,-0.01,31.67
45115192,1276,1,208595,234028,0.53,-0.81,9.96,-0.03,-0.01,-0.01,31.67
45155191,1202,1,207773,231772,0.58,-0.80,9.96,-0.03,-0.01,-0.00,31.67
45195192,1280,1,207246,230847,0.59,-0.83,9.94,-0.03,-0.01,-0.01,31.67
45235191,1386,1,206866,230956,0.54,-0.82,9.97,-0.04,-0.01,-0.01,31.67
45275191,1582,1,206588,231228,0.58,-0.79,9.97,-0.04,-0.01,-0.00,31.67
45315192,1535,1,206411,231635,0.59,-0.81,9.97,-0.03,-0.01,-0.00,31.67
45355192,1585,1,206339,232195,0.56,-0.83,9.96,-0.03,-0.01,-0.01,31.67
45395192,1701,1,206553,232386,0.57,-0.80,9.96,-0.03,-0.01,-0.00,31.67
45435192,1808,1,206657,232593,0.60,-0.82,9.96,-0.03,-0.01,-0.00,31.67
45475189,1885,1,206734,232767,0.54,-0.80,9.94,-0.03,-0.01,-0.01,31.67
45515192,2103,1,206842,233080,0.57,-0.85,9.98,-0.03,-0.02,-0.00,31.67
45555191,2251,1,206941,233457,0.61,-0.79,9.95,-0.03,-0.01,-0.01,31.67
45595191,2315,1,206954,233848,0.57,-0.82,9.98,-0.03,-0.00,-0.00,31.67
45635234,2454,1,206823,234038,0.54,-0.81,9.96,-0.03,-0.01,-0.01,31.67
45675192,2475,1,206843,234214,0.57,-0.81,9.98,-0.03,-0.00,-0.01,31.67
45715878,2388,1,206988,234470,0.57,-0.82,9.96,-0.03,-0.01,-0.00,31.29
45754192,2431,1,207038,234558,0.52,-0.81,9.96,-0.03,-0.01,-0.00,31.29
45794191,2433,1,206939,233485,0.58,-0.79,9.95,-0.03,-0.01,-0.00,31.29
45834210,2586,1,206307,231510,0.60,-0.80,9.95,-0.03,-0.01,-0.01,31.29
45874189,2690,1,205723,230368,0.56,-0.84,9.96,-0.03,-0.01,-0.01,31.29
45914192,2839,1,205553,229963,0.54,-0.82,9.99,-0.03,-0.01,-0.00,31.29
45954192,2614,1,205507,229787,0.60,-0.81,9.95,-0.03,-0.01,-0.01,31.29
45994192,2439,1,205548,229882,0.55,-0.83,9.96,-0.03,-0.01,-0.00,31.29
46034191,2495,1,205564,230553,0.56,-0.82,9.97,-0.03,-0.01,-0.00,31.29
46073192,2613,1,205655,231168,0.59,-0.82,9.98,-0.04,-0.01,-0.01,31.29
46113191,2557,1,205765,231287,0.58,-0.81,10.00,-0.04,-0.01,-0.01,31.29
46153192,2400,1,205804,231326,0.56,-0.81,9.95,-0.03,-0.01,-0.00,31.29
46193192,2269,1,205857,231536,0.59,-0.84,9.96,-0.03,-0.01,-0.00,31.29
46233192,2211,1,205906,231774,0.59,-0.82,9.95,-0.03,-0.01,-0.01,31.29
46273191,2158,1,205984,232011,0.56,-0.82,9.96,-0.03,-0.01,-0.00,31.29
46313192,1989,1,206042,232120,0.57,-0.81,9.94,-0.03,-0.01,-0.00,31.29
46353192,1985,1,206063,232284,0.58,-0.83,9.99,-0.03,-0.01,-0.00,31.29
46393192,1979,1,206119,232550,0.56,-0.85,9.98,-0.03,-0.01,-0.00,31.29
46433191,1936,1,206190,232730,0.56,-0.82,9.95,-0.03,-0.01,-0.00,31.29
46473192,1936,1,206221,232769,0.59,-0.81,9.97,-0.03,-0.01,-0.00,31.29
46513189,1983,1,206038,231524,0.57,-0.82,9.94,-0.03,-0.01,-0.00,31.29
46553192,1857,1,205280,229599,0.55,-0.82,9.97,-0.03,-0.01,-0.00,31.29
46593192,1903,1,204767,228512,0.57,-0.81,9.96,-0.03,-0.01,-0.00,31.29
46633192,1934,1,204578,228349,0.59,-0.79,9.94,-0.03,-0.01,-0.00,31.29
46673191,1991,1,204535,228350,0.58,-0.84,9.96,-0.03,-0.01,-0.01,31.29
46713192,1905,1,204525,228441,0.57,-0.82,9.94,-0.03,-0.01,-0.00,31.29
46753878,1909,1,204684,229011,0.59,-0.81,9.99,-0.03,-0.01,-0.01,31.15
46794192,1824,1,204843,229382,0.57,-0.80,9.98,-0.03,-0.01,-0.01,31.15
46834189,1890,1,204844,229627,0.55,-0.80,9.97,-0.03,-0.01,-0.01,31.15
46874192,1884,1,204921,229938,0.58,-0.81,9.99,-0.04,-0.01,-0.01,31.15
46914192,1895,1,204882,230325,0.55,-0.81,9.95,-0.03,-0.01,-0.01,31.15
46954192,1904,1,204969,230630,0.55,-0.82,9.94,-0.03,-0.01,-0.01,31.15
46994192,1872,1,204999,230858,0.59,-0.82,9.95,-0.03,-0.01,-0.01,31.15
47034192,1951,1,205079,231023,0.57,-0.82,9.96,-0.03,-0.01,-0.01,31.15
47073191,2062,1,205040,231040,0.55,-0.83,9.95,-0.03,-0.01,-0.00,31.15
47113192,2035,1,205152,230954,0.55,-0.82,9.99,-0.03,-0.02,-0.00,31.15
47153192,2035,1,205204,231218,0.58,-0.79,9.91,-0.03,-0.01,-0.01,31.15
47193192,2055,1,205353,231792,0.55,-0.85,9.98,-0.03,-0.01,-0.01,31.15
47233192,2160,1,205503,231894,0.56,-0.82,9.97,-0.03,-0.01,-0.00,31.15
47273224,2151,1,205401,230684,0.57,-0.81,9.95,-0.03,-0.01,-0.00,31.15
47313192,2151,1,204967,229318,0.56,-0.83,9.95,-0.03,-0.01,-0.00,31.15
47353192,2173,1,204728,228790,0.59,-0.83,9.95,-0.03,-0.01,-0.00,31.15
47393192,2192,1,204664,228759,0.58,-0.82,9.96,-0.03,-0.01,-0.00,31.15
47433192,2125,1,204809,228976,0.58,-0.83,9.96,-0.03,-0.01,-0.00,31.15
47473226,2139,1,204860,229493,0.59,-0.81,9.96,-0.03,-0.01,-0.01,31.15
47513192,2191,1,205063,229823,0.58,-0.84,9.99,-0.03,-0.01,-0.01,31.15
47553191,2162,1,205202,230028,0.60,-0.83,9.97,-0.03,-0.01,-0.00,31.15
47593192,2135,1,205236,230247,0.57,-0.83,9.97,-0.03,-0.01,-0.00,31.15
47633192,2116,1,205337,230520,0.57,-0.81,9.95,-0.03,-0.01,-0.00,31.15
47673192,2175,1,205461,230728,0.58,-0.81,9.96,-0.03,-0.01,-0.00,31.15
47713192,2170,1,205544,231152,0.55,-0.82,9.94,-0.03,-0.01,-0.00,31.15
47753878,2197,1,205699,231367,0.58,-0.82,9.96,-0.04,-0.01,-0.01,30.97
47794192,2176,1,205729,231529,0.58,-0.83,9.92,-0.03,-0.01,-0.00,30.97
47834192,2182,1,205881,232003,0.59,-0.82,9.95,-0.03,-0.01,-0.00,30.97
47874192,2203,1,206063,232705,0.58,-0.83,9.97,-0.03,-0.01,-0.00,30.97
47914192,2176,1,206228,233054,0.55,-0.80,9.95,-0.03,-0.01,-0.00,30.97
47954189,2185,1,206214,232820,0.58,-0.83,9.95,-0.03,-0.01,-0.01,30.97
47994192,2166,1,205961,231618,0.58,-0.81,9.98,-0.03,-0.01,-0.00,30.97
48034192,2172,1,205604,230846,0.59,-0.83,9.94,-0.03,-0.01,-0.00,30.97
48074192,2182,1,205625,230664,0.59,-0.81,9.93,-0.03,-0.01,-0.01,30.97
48113192,2127,1,205588,230635,0.58,-0.83,9.96,-0.03,-0.01,-0.01,30.97
48153192,2162,1,205575,230671,0.59,-0.84,9.96,-0.03,-0.01,-0.00,30.97
48193192,2128,1,205510,230814,0.58,-0.83,9.95,-0.03,-0.01,-0.00,30.97
48233192,2096,1,205580,230810,0.58,-0.81,9.96,-0.03,-0.01,-0.00,30.97
48273192,2178,1,205523,230850,0.58,-0.81,9.98,-0.03,-0.01,-0.00,30.97
48313192,2083,1,205609,231105,0.59,-0.83,9.95,-0.03,-0.01,-0.01,30.97
48353192,2109,1,205718,231521,0.59,-0.83,9.98,-0.03,-0.01,-0.00,30.97
48393192,2083,1,205896,232061,0.58,-0.84,9.96,-0.03,-0.01,-0.01,30.97
48433192,2010,1,206043,232537,0.57,-0.82,9.94,-0.03,-0.01,-0.00,30.97
48473192,1986,1,206174,232985,0.58,-0.83,9.93,-0.03,-0.01,-0.00,30.97
48513192,1936,1,206310,233594,0.57,-0.84,9.97,-0.04,-0.01,-0.00,30.97
48553192,2009,1,206546,234168,0.57,-0.82,9.98,-0.03,-0.01,-0.00,30.97
48593192,1979,1,206708,234548,0.56,-0.82,9.96,-0.03,-0.01,-0.00,30.97
48633192,2030,1,206834,234628,0.58,-0.82,9.97,-0.03,-0.01,-0.00,30.97
48673192,1988,1,206689,233678,0.58,-0.82,9.97,-0.03,-0.01,-0.00,30.97
48713192,2106,1,206253,232460,0.56,-0.83,9.96,-0.03,-0.01,-0.01,30.97
48753878,2003,1,205822,231876,0.57,-0.81,9.95,-0.03,-0.01,-0.00,30.85
48794192,1978,1,205763,231868,0.57,-0.83,9.94,-0.03,-0.01,-0.00,30.85
48834192,2032,1,205771,231981,0.58,-0.83,9.96,-0.03,-0.01,-0.00,30.85
48872192,2162,1,205850,232275,0.56,-0.83,9.97,-0.03,-0.01,-0.01,30.85
48912230,2084,1,205922,232506,0.57,-0.79,9.95,-0.03,-0.01,-0.00,30.85
48952192,2095,1,205983,232612,0.58,-0.82,9.96,-0.03,-0.01,-0.00,30.85
48992192,2083,1,206023,232725,0.60,-0.83,9.95,-0.03,-0.01,-0.01,30.85
49032192,2121,1,206061,232734,0.58,-0.82,9.97,-0.03,-0.01,-0.00,30.85
49072192,2096,1,206144,232879,0.59,-0.83,9.94,-0.03,-0.01,-0.00,30.85
49112226,2103,1,206161,232858,0.56,-0.84,9.96,-0.03,-0.01,-0.00,30.85
49152192,2112,1,206273,233176,0.57,-0.83,9.96,-0.03,-0.02,-0.00,30.85
49192192,2114,1,206560,233599,0.58,-0.83,9.95,-0.03,-0.02,-0.00,30.85
49232192,2141,1,206862,234089,0.59,-0.82,9.91,-0.03,-0.01,-0.00,30.85
49272192,2101,1,207053,234575,0.59,-0.83,9.97,-0.03,-0.01,-0.01,30.85
49312192,2137,1,207219,234936,0.58,-0.84,9.93,-0.03,-0.01,-0.00,30.85
49352192,2144,1,207359,234984,0.60,-0.84,9.94,-0.03,-0.01,-0.00,30.85
49392189,2160,1,207193,234117,0.57,-0.83,9.96,-0.03,-0.01,-0.01,30.85
49432192,2251,1,206789,232586,0.57,-0.83,9.96,-0.03,-0.01,-0.00,30.85
49472192,2185,1,206404,232098,0.61,-0.82,9.95,-0.03,-0.01,-0.00,30.85
49512192,2167,1,206327,232074,0.57,-0.82,9.98,-0.03,-0.01,-0.00,30.85
49552192,2128,1,206357,232089,0.57,-0.82,9.95,-0.03,-0.01,-0.00,30.85
49592191,2096,1,206424,232448,0.61,-0.82,9.95,-0.03,-0.01,-0.01,30.85
49632192,2109,1,206555,232913,0.60,-0.80,9.96,-0.03,-0.01,-0.00,30.85
49672192,2047,1,206690,233064,0.56,-0.79,9.98,-0.03,-0.01,-0.00,30.85
49712191,2133,1,206727,233227,0.59,-0.82,9.98,-0.03,-0.01,-0.00,30.85
49752191,2241,1,206925,233677,0.59,-0.82,9.95,-0.03,-0.01,-0.00,30.85
49792878,2252,1,207063,234198,0.59,-0.83,9.95,-0.04,-0.01,-0.01,30.91
49833192,2371,1,207265,234562,0.57,-0.84,9.97,-0.03,-0.01,-0.00,30.91
49873192,2448,1,207297,234776,0.58,-0.83,9.97,-0.03,-0.01,-0.00,30.91
49913191,2796,1,207257,234972,0.58,-0.81,9.94,-0.03,-0.01,-0.00,30.91
49953192,2403,1,207410,235198,0.57,-0.83,9.97,-0.03,-0.01,-0.00,30.91
49993192,2131,1,207563,235514,0.59,-0.83,9.95,-0.03,-0.01,-0.00,30.91
50033191,1973,1,207692,235932,0.59,-0.82,9.94,-0.03,-0.01,-0.00,30.91
50073192,1895,1,207834,236169,0.59,-0.81,9.96,-0.03,-0.01,-0.00,30.91
50113192,1837,1,207675,235362,0.56,-0.80,9.94,-0.03,-0.01,-0.00,30.91
50153192,1897,1,207358,234190,0.59,-0.81,9.96,-0.04,-0.01,-0.00,30.91
50193192,1858,1,207021,233776,0.58,-0.81,9.96,-0.03,-0.01,-0.01,30.91
50233192,1881,1,207025,233683,0.58,-0.83,9.95,-0.03,-0.01,-0.00,30.91
50273192,1910,1,206927,233620,0.60,-0.83,9.98,-0.03,-0.01,-0.00,30.91
50313192,1922,1,206973,233874,0.59,-0.81,9.96,-0.03,-0.01,-0.00,30.91
50353191,1933,1,207061,234165,0.58,-0.82,9.96,-0.03,-0.01,-0.00,30.91
50393192,1941,1,207108,234193,0.58,-0.80,9.97,-0.03,-0.01,-0.00,30.91
50433188,1937,1,207087,234003,0.60,-0.84,9.97,-0.03,-0.01,-0.00,30.91
50473192,1932,1,207013,234128,0.59,-0.81,9.94,-0.03,-0.01,-0.01,30.91
50513191,1978,1,207139,234311,0.57,-0.83,9.96,-0.03,-0.01,-0.00,30.91
50553192,2000,1,207158,234391,0.56,-0.82,9.96,-0.03,-0.01,-0.01,30.91
50593192,2002,1,207142,234413,0.58,-0.82,9.98,-0.03,-0.01,-0.00,30.91
50633192,2013,1,207107,234246,0.59,-0.82,9.98,-0.03,-0.01,-0.00,30.91
50673191,2041,1,206981,233979,0.57,-0.82,9.94,-0.03,-0.01,-0.01,30.91
50713192,2032,1,206905,233682,0.59,-0.79,9.95,-0.03,-0.01,-0.00,30.91
50753195,2057,1,206736,233536,0.57,-0.80,9.97,-0.03,-0.00,-0.00,30.91
50793878,2026,1,206599,232441,0.58,-0.81,9.98,-0.03,-0.01,-0.00,31.01
50832192,2097,1,205983,230810,0.56,-0.81,9.95,-0.03,-0.01,-0.00,31.01
50872192,2125,1,206104,232520,0.56,-0.78,9.97,-0.03,-0.03,-0.00,31.01
50912192,2064,1,207692,236418,0.57,-0.79,9.93,-0.04,-0.02,-0.00,31.01
50952213,2019,1,209068,238963,0.61,-0.82,10.01,-0.06,-0.01,-0.01,31.01
50992192,2074,1,209250,239270,0.57,-0.81,9.97,-0.03,-0.01,-0.00,31.01
51032192,2161,1,209026,238922,0.58,-0.80,9.93,-0.03,-0.01,-0.00,31.01
51072192,2183,1,208876,238929,0.58,-0.80,9.96,-0.04,-0.02,-0.00,31.01
51112192,2139,1,208970,239350,0.58,-0.85,9.94,-0.04,-0.02,-0.00,31.01
51152192,2113,1,209225,239684,0.58,-0.81,9.94,-0.03,-0.02,-0.00,31.01
51192192,2113,1,209474,240023,0.60,-0.79,9.95,-0.03,-0.01,-0.00,31.01
51232188,2118,1,209661,240500,0.58,-0.79,9.97,-0.03,-0.01,-0.00,31.01
51272192,2102,1,209894,240911,0.58,-0.85,9.98,-0.04,-0.01,-0.00,31.01
51312192,2122,1,210028,241188,0.58,-0.82,9.95,-0.03,-0.01,-0.00,31.01
51352192,2097,1,210218,241549,0.62,-0.82,9.96,-0.04,-0.01,-0.00,31.01
51392192,2076,1,210294,242018,0.58,-0.82,9.99,-0.04,-0.02,-0.00,31.01
51432192,2062,1,210805,243042,0.59,-0.82,9.95,-0.04,-0.03,-0.01,31.01
51472192,2087,1,211174,242430,0.61,-0.83,9.95,-0.04,-0.03,-0.00,31.01
51512192,2106,1,211075,242033,0.60,-0.82,9.94,-0.04,-0.02,-0.00,31.01
51552189,2139,1,211062,242126,0.59,-0.83,9.92,-0.03,-0.01,-0.00,31.01
51592192,2112,1,211204,242172,0.61,-0.83,9.97,-0.03,-0.01,-0.00,31.01
51632192,2100,1,211180,242046,0.62,-0.83,9.97,-0.03,-0.01,-0.00,31.01
51672192,2125,1,211120,242137,0.62,-0.82,9.96,-0.03,-0.01,-0.00,31.01
51712192,2096,1,211314,242635,0.60,-0.82,9.95,-0.03,-0.01,-0.00,31.01
51752192,2066,1,211850,243819,0.61,-0.83,9.96,-0.04,-0.02,-0.00,31.01
51792192,2064,1,212308,244593,0.61,-0.84,9.96,-0.04,-0.01,-0.00,31.01
51832878,2000,1,212452,244931,0.64,-0.83,9.98,-0.03,-0.01,-0.00,31.21
51873191,1972,1,212502,245098,0.60,-0.83,9.97,-0.03,-0.01,-0.01,31.21
51913192,1932,1,212400,245075,0.61,-0.82,9.95,-0.03,-0.01,-0.00,31.21
51953192,1973,1,212362,244997,0.61,-0.85,9.95,-0.03,-0.01,-0.00,31.21
51993192,1932,1,212300,245001,0.64,-0.82,9.96,-0.03,-0.00,-0.00,31.21
52031189,2016,1,212268,245017,0.61,-0.82,9.95,-0.03,-0.01,-0.00,31.21
52071192,2003,1,212259,245043,0.61,-0.83,9.93,-0.03,-0.01,-0.00,31.21
52111192,2032,1,212255,244875,0.63,-0.84,9.97,-0.03,-0.01,-0.00,31.21
52151192,1986,1,212128,243920,0.59,-0.80,9.94,-0.03,-0.01,-0.01,31.21
52191192,1982,1,211627,242731,0.60,-0.84,9.97,-0.03,-0.01,-0.00,31.21
52231192,1993,1,211310,242258,0.61,-0.82,9.94,-0.03,-0.01,-0.01,31.21
52271192,1993,1,211244,242176,0.61,-0.84,9.95,-0.03,-0.01,-0.00,31.21
52311192,2023,1,211264,242113,0.61,-0.84,9.97,-0.03,-0.01,-0.00,31.21
52351192,2014,1,211284,242241,0.61,-0.83,9.96,-0.03,-0.01,-0.00,31.21
52391210,2004,1,211301,242421,0.62,-0.83,9.96,-0.03,-0.01,-0.00,31.21
52431192,2031,1,211369,242524,0.60,-0.85,9.95,-0.03,-0.01,-0.01,31.21
52471192,2064,1,211394,242606,0.61,-0.85,9.94,-0.03,-0.01,-0.00,31.21
52511189,2062,1,211442,242806,0.61,-0.81,9.96,-0.03,-0.01,-0.00,31.21
52551192,2036,1,211482,243050,0.60,-0.84,9.95,-0.03,-0.01,-0.00,31.21
52591208,2091,1,211600,243414,0.59,-0.83,9.95,-0.03,-0.01,-0.00,31.21
52631192,2084,1,211706,243665,0.62,-0.83,9.96,-0.03,-0.01,-0.00,31.21
52671192,2096,1,211735,243929,0.63,-0.81,9.96,-0.03,-0.01,-0.00,31.21
52711191,2107,1,211815,244228,0.60,-0.83,9.98,-0.03,-0.01,-0.00,31.21
52751189,2090,1,211887,244394,0.60,-0.83,9.95,-0.03,-0.01,-0.00,31.21
52791192,2109,1,211945,244594,0.60,-0.83,9.96,-0.03,-0.01,-0.01,31.21
52831192,2115,1,211910,244262,0.61,-0.81,9.98,-0.04,-0.01,-0.00,31.21
52871878,2062,1,211595,243123,0.61,-0.81,9.94,-0.03,-0.01,-0.00,31.29
52912191,2085,1,211372,242873,0.60,-0.82,9.97,-0.03,-0.01,-0.00,31.29
52952192,2074,1,211318,242911,0.62,-0.83,9.94,-0.03,-0.01,-0.01,31.29
52992192,2093,1,211316,243075,0.60,-0.83,9.96,-0.03,-0.01,-0.01,31.29
53032192,2055,1,211400,243295,0.61,-0.84,9.97,-0.03,-0.01,-0.00,31.29
53072191,2061,1,211519,243763,0.58,-0.85,10.01,-0.03,-0.01,-0.00,31.29
53112192,2037,1,211699,243843,0.61,-0.81,9.93,-0.03,-0.01,-0.00,31.29
53152191,2101,1,211684,243695,0.59,-0.83,9.95,-0.03,-0.01,-0.00,31.29
53192192,2037,1,211675,243722,0.61,-0.82,9.96,-0.03,-0.01,-0.00,31.29
53232191,2086,1,211703,243951,0.60,-0.82,9.98,-0.03,-0.01,-0.01,31.29
53272192,2127,1,211808,244489,0.63,-0.83,9.95,-0.04,-0.01,-0.00,31.29
53312192,2079,1,211925,244940,0.61,-0.84,10.00,-0.03,-0.00,-0.00,31.29
53352192,2071,1,211876,244850,0.61,-0.83,9.98,-0.03,-0.01,-0.00,31.29
53392191,2001,1,211860,244765,0.61,-0.83,9.96,-0.03,-0.01,-0.00,31.29
53432192,2027,1,211858,244794,0.62,-0.83,9.96,-0.03,-0.01,-0.00,31.29
53472192,2031,1,211868,244837,0.60,-0.83,9.97,-0.03,-0.01,-0.01,31.29
53512192,2015,1,211871,244488,0.61,-0.84,9.95,-0.03,-0.01,-0.00,31.29
53552192,2020,1,211552,243075,0.60,-0.84,9.94,-0.03,-0.01,-0.00,31.29
53592192,2027,1,211225,242424,0.61,-0.83,9.97,-0.04,-0.01,-0.00,31.29
53632192,2021,1,211078,242104,0.59,-0.84,9.96,-0.03,-0.01,-0.00,31.29
53672192,2006,1,211057,242035,0.60,-0.82,9.96,-0.03,-0.01,-0.00,31.29
53712189,2055,1,211156,242206,0.61,-0.85,9.96,-0.04,-0.02,-0.00,31.29
53752192,2063,1,211285,242595,0.62,-0.84,9.96,-0.04,-0.01,-0.00,31.29
53792192,2083,1,211380,242799,0.59,-0.82,9.98,-0.03,-0.01,-0.00,31.29
53832192,2055,1,211419,242753,0.62,-0.81,9.96,-0.03,-0.01,-0.01,31.29
53872878,2037,1,211434,242818,0.60,-0.82,9.96,-0.03,-0.01,-0.00,31.35
53911191,2074,1,211458,242810,0.62,-0.84,9.96,-0.03,-0.01,-0.00,31.35
53951192,2057,1,211508,243013,0.61,-0.83,9.96,-0.03,-0.01,-0.00,31.35
53991192,2026,1,211553,243215,0.63,-0.81,9.96,-0.03,-0.01,-0.00,31.35
54031219,2069,1,211571,243406,0.59,-0.83,9.97,-0.03,-0.01,-0.00,31.35
54071192,2061,1,211656,243545,0.60,-0.84,9.94,-0.03,-0.01,-0.00,31.35
54111189,2060,1,211703,243670,0.60,-0.84,9.91,-0.03,-0.01,-0.00,31.35
54151192,2061,1,211745,243756,0.60,-0.80,9.96,-0.03,-0.01,-0.00,31.35
54191188,2015,1,211735,243705,0.58,-0.83,9.95,-0.03,-0.01,-0.00,31.35
54231223,2062,1,211607,242638,0.62,-0.82,9.94,-0.03,-0.01,-0.00,31.35
54271192,2032,1,211155,241610,0.62,-0.83,9.97,-0.03,-0.01,-0.00,31.35
54311192,2084,1,210949,241153,0.60,-0.83,9.94,-0.03,-0.01,-0.00,31.35
54351189,2063,1,210839,240919,0.61,-0.83,9.95,-0.03,-0.01,-0.00,31.35
54391192,2042,1,210784,240924,0.63,-0.85,9.94,-0.03,-0.01,-0.00,31.35
54431192,2058,1,210767,241207,0.61,-0.83,9.96,-0.03,-0.01,-0.00,31.35
54471192,2079,1,210856,241476,0.58,-0.82,9.97,-0.03,-0.01,-0.00,31.35
54511192,2084,1,210940,241549,0.60,-0.79,9.97,-0.03,-0.01,-0.00,31.35
54551192,2064,1,210895,241558,0.61,-0.83,9.96,-0.03,-0.01,-0.00,31.35
54591192,2041,1,210865,241601,0.60,-0.84,9.94,-0.03,-0.01,-0.00,31.35
54631192,2032,1,210928,241773,0.62,-0.80,9.95,-0.03,-0.01,-0.00,31.35
54671189,2007,1,211004,242032,0.59,-0.83,9.96,-0.03,-0.01,-0.00,31.35
54711192,2043,1,211073,242177,0.61,-0.84,9.95,-0.03,-0.01,-0.00,31.35
54751191,2019,1,211097,242447,0.61,-0.83,9.93,-0.03,-0.01,-0.00,31.35
54791192,2025,1,211220,242642,0.62,-0.83,9.96,-0.03,-0.01,-0.00,31.35
54831191,2032,1,211302,242862,0.61,-0.83,9.97,-0.03,-0.01,-0.00,31.35
54871192,2059,1,211406,242991,0.62,-0.81,9.95,-0.03,-0.01,-0.00,31.35
54911877,2030,1,211216,242382,0.61,-0.82,9.95,-0.03,-0.01,-0.00,31.29
54952192,2047,1,210897,241441,0.61,-0.84,9.98,-0.03,-0.01,-0.00,31.29
54992192,2023,1,210682,241072,0.59,-0.82,9.96,-0.03,-0.01,-0.00,31.29
55030192,2128,1,210618,240936,0.58,-0.83,9.93,-0.03,-0.01,-0.00,31.29
55070192,2128,1,210571,240853,0.62,-0.82,9.97,-0.03,-0.01,-0.00,31.29
55110192,2128,1,210546,240927,0.62,-0.82,9.98,-0.03,-0.01,-0.00,31.29
55150192,2119,1,210676,241316,0.62,-0.82,9.97,-0.03,-0.01,-0.00,31.29
55190192,2121,1,210756,241404,0.59,-0.83,9.96,-0.03,-0.01,-0.00,31.29
55230192,2121,1,210822,241518,0.62,-0.81,9.98,-0.03,-0.01,-0.00,31.29
55270192,2129,1,210869,241624,0.61,-0.83,9.94,-0.03,-0.01,-0.00,31.29
55310191,2102,1,210955,241878,0.61,-0.83,9.96,-0.03,-0.01,-0.00,31.29
55350192,2096,1,211069,242139,0.61,-0.84,9.97,-0.03,-0.01,-0.00,31.29
55390189,2093,1,211096,242335,0.62,-0.82,9.96,-0.03,-0.01,-0.00,31.29
55430192,2060,1,211169,242542,0.62,-0.82,9.97,-0.03,-0.01,-0.00,31.29
55470192,2082,1,211264,242782,0.62,-0.81,9.96,-0.03,-0.01,-0.00,31.29
55510192,2096,1,211410,243023,0.61,-0.82,9.95,-0.04,-0.01,-0.01,31.29
55550191,2149,1,211403,243315,0.60,-0.81,9.96,-0.03,-0.01,-0.01,31.29
55590192,2095,1,211533,243279,0.59,-0.81,9.96,-0.03,-0.01,-0.00,31.29
55630191,2078,1,211250,241992,0.61,-0.84,9.95,-0.03,-0.01,-0.00,31.29
55670240,2077,1,210881,241264,0.62,-0.83,9.94,-0.03,-0.01,-0.00,31.29
55710192,2087,1,210695,241001,0.61,-0.82,9.97,-0.03,-0.01,-0.00,31.29
55750192,2119,1,210690,240979,0.61,-0.84,9.95,-0.03,-0.01,-0.00,31.29
55790191,2094,1,210655,241013,0.62,-0.84,9.97,-0.03,-0.01,-0.00,31.29
55830192,2122,1,210690,241299,0.62,-0.84,9.97,-0.03,-0.01,-0.00,31.29
55870240,2096,1,210637,241497,0.60,-0.83,9.96,-0.03,-0.01,-0.00,31.29
55910192,2067,1,210753,241608,0.62,-0.84,9.97,-0.03,-0.01,-0.01,31.29
55950878,2022,1,210847,241624,0.62,-0.83,9.95,-0.03,-0.01,-0.00,31.47
55991192,2030,1,210887,241813,0.63,-0.83,9.95,-0.03,-0.01,-0.00,31.47
56031192,2032,1,210960,242020,0.61,-0.83,9.97,-0.03,-0.01,-0.00,31.47
56071192,2044,1,211033,242155,0.62,-0.81,9.97,-0.03,-0.01,-0.00,31.47
56111192,2045,1,211049,242364,0.62,-0.81,9.94,-0.03,-0.01,-0.00,31.47
56151192,2054,1,211150,242550,0.60,-0.82,9.96,-0.03,-0.01,-0.00,31.47
56191189,2045,1,211194,242745,0.60,-0.83,9.94,-0.03,-0.01,-0.00,31.47
56231192,2042,1,211250,242928,0.61,-0.82,9.95,-0.03,-0.01,-0.00,31.47
56271192,2031,1,211243,242610,0.60,-0.84,9.99,-0.03,-0.01,-0.01,31.47
56311192,2035,1,211028,241400,0.63,-0.82,9.94,-0.03,-0.01,-0.00,31.47
56351191,2083,1,210643,240641,0.62,-0.83,9.93,-0.03,-0.01,-0.01,31.47
56391192,2033,1,210479,240370,0.63,-0.82,9.96,-0.03,-0.01,-0.00,31.47
56431192,2054,1,210410,240321,0.58,-0.85,9.97,-0.03,-0.01,-0.00,31.47
56471192,2041,1,210441,240317,0.60,-0.83,9.96,-0.03,-0.01,-0.01,31.47
56511189,2047,1,210449,240481,0.62,-0.84,9.93,-0.03,-0.01,-0.00,31.47
56551192,2019,1,210528,240567,0.62,-0.83,9.98,-0.03,-0.01,-0.00,31.47
56591192,2031,1,210549,240651,0.61,-0.81,9.95,-0.03,-0.01,-0.00,31.47
56631192,2021,1,210556,240710,0.61,-0.84,9.96,-0.03,-0.01,-0.01,31.47
56671192,2033,1,210612,240855,0.59,-0.83,9.94,-0.03,-0.01,-0.01,31.47
56711192,2045,1,210654,240991,0.60,-0.82,9.97,-0.03,-0.01,-0.00,31.47
56751189,2032,1,210694,241217,0.63,-0.82,9.96,-0.03,-0.01,-0.00,31.47
56791192,2017,1,210788,241345,0.60,-0.82,9.95,-0.03,-0.01,-0.00,31.47
56831189,2030,1,210739,241450,0.61,-0.84,9.97,-0.03,-0.01,-0.00,31.47
56871192,2015,1,210826,241697,0.61,-0.83,9.96,-0.03,-0.01,-0.00,31.47
56911192,2017,1,210841,241859,0.61,-0.81,9.97,-0.03,-0.01,-0.00,31.47
56951878,2029,1,211001,241847,0.61,-0.83,9.97,-0.03,-0.01,-0.00,31.41
56990192,2071,1,210788,240776,0.61,-0.83,9.95,-0.03,-0.01,-0.00,31.41
57030192,2062,1,210347,239665,0.60,-0.82,9.96,-0.03,-0.01,-0.00,31.41
57070189,2081,1,210085,239116,0.59,-0.84,9.95,-0.03,-0.01,-0.01,31.41
57110192,2098,1,209937,238875,0.60,-0.83,9.94,-0.03,-0.01,-0.00,31.41
57150189,2096,1,209862,238887,0.59,-0.83,9.95,-0.03,-0.01,-0.00,31.41
57190192,2054,1,209877,239098,0.60,-0.83,9.97,-0.03,-0.01,-0.01,31.41
57230188,2063,1,209942,239390,0.58,-0.83,9.96,-0.03,-0.01,-0.00,31.41
57270192,2046,1,210028,239542,0.60,-0.81,9.96,-0.03,-0.01,-0.00,31.41
57310197,2030,1,210015,239572,0.62,-0.82,9.97,-0.03,-0.01,-0.00,31.41
57350192,2053,1,210054,239789,0.62,-0.80,9.93,-0.03,-0.01,-0.00,31.41
57390189,2070,1,210138,239980,0.61,-0.81,9.98,-0.03,-0.01,-0.00,31.41
57430192,2064,1,210240,240346,0.60,-0.85,9.96,-0.03,-0.01,-0.00,31.41
57470189,2045,1,210273,240556,0.61,-0.82,9.95,-0.03,-0.01,-0.00,31.41
57510222,2062,1,210387,240758,0.60,-0.81,9.95,-0.03,-0.01,-0.00,31.41
57550189,2019,1,210431,240901,0.62,-0.83,9.96,-0.03,-0.01,-0.00,31.41
57590192,2065,1,210509,241102,0.60,-0.83,9.96,-0.03,-0.01,-0.00,31.41
57630189,2073,1,210626,241326,0.59,-0.83,9.98,-0.03,-0.01,-0.01,31.41
57670192,2045,1,210673,241228,0.61,-0.80,9.97,-0.03,-0.01,-0.00,31.41
57710214,2094,1,210500,240004,0.62,-0.82,9.96,-0.03,-0.01,-0.00,31.41
57750192,2061,1,210044,238954,0.59,-0.84,9.95,-0.03,-0.01,-0.01,31.41
57790192,2039,1,209723,238536,0.60,-0.81,9.94,-0.03,-0.01,-0.01,31.41
57830192,2037,1,209713,238502,0.60,-0.84,9.98,-0.03,-0.01,-0.00,31.41
57870189,2013,1,209775,238622,0.63,-0.83,9.96,-0.03,-0.01,-0.00,31.41
57910192,2054,1,209882,238874,0.60,-0.83,9.97,-0.03,-0.01,-0.00,31.41
57950189,2026,1,209962,239089,0.59,-0.82,9.96,-0.03,-0.01,-0.00,31.41
57990878,2021,1,210011,239300,0.60,-0.82,9.97,-0.03,-0.01,-0.00,31.35
58029189,2126,1,210146,239505,0.63,-0.82,9.94,-0.03,-0.01,-0.00,31.35
58069192,2087,1,210234,239876,0.62,-0.83,9.97,-0.03,-0.01,-0.00,31.35
58109189,2128,1,210465,240214,0.60,-0.83,9.95,-0.03,-0.01,-0.00,31.35
58150192,2053,1,210580,240528,0.61,-0.81,9.93,-0.03,-0.01,-0.00,31.35
58190192,2046,1,210723,240770,0.61,-0.83,9.97,-0.03,-0.01,-0.00,31.35
58230192,2036,1,210794,240979,0.62,-0.85,9.94,-0.03,-0.01,-0.00,31.35
58270191,2054,1,210867,241242,0.59,-0.82,9.94,-0.03,-0.01,-0.01,31.35
58310192,2035,1,210997,241569,0.61,-0.84,9.97,-0.03,-0.01,-0.01,31.35
58350192,2076,1,211152,241879,0.61,-0.82,9.95,-0.03,-0.01,-0.01,31.35
58390192,2027,1,211174,241178,0.59,-0.84,9.96,-0.03,-0.01,-0.00,31.35
58430192,2046,1,210804,240024,0.62,-0.83,9.94,-0.03,-0.01,-0.00,31.35
58470192,2016,1,210444,239396,0.62,-0.82,9.96,-0.03,-0.01,-0.01,31.35
58510192,2061,1,210368,239330,0.61,-0.84,9.94,-0.03,-0.01,-0.00,31.35
58550192,2007,1,210403,239372,0.63,-0.83,9.95,-0.03,-0.01,-0.00,31.35
58590192,1998,1,210424,239552,0.63,-0.82,9.93,-0.03,-0.01,-0.00,31.35
58630192,2064,1,210517,239899,0.61,-0.83,9.94,-0.03,-0.01,-0.00,31.35
58670191,2035,1,210560,240022,0.63,-0.83,9.95,-0.03,-0.01,-0.00,31.35
58710192,2054,1,210611,240059,0.63,-0.85,9.94,-0.03,-0.01,-0.00,31.35
58750192,2043,1,210650,240152,0.60,-0.82,9.96,-0.03,-0.01,-0.00,31.35
58790192,2085,1,210618,240297,0.61,-0.84,9.95,-0.04,-0.01,-0.00,31.35
58830192,2086,1,210668,240467,0.63,-0.82,9.93,-0.03,-0.01,-0.00,31.35
58870192,2047,1,210776,240636,0.60,-0.82,9.96,-0.03,-0.01,-0.00,31.35
58910189,2042,1,210815,240762,0.61,-0.82,9.97,-0.03,-0.01,-0.01,31.35
58950191,2052,1,210901,241030,0.60,-0.81,9.99,-0.03,-0.01,-0.01,31.35
58990876,2016,1,210936,241172,0.61,-0.81,9.95,-0.03,-0.01,-0.00,30.99
59029192,2074,1,210955,241266,0.61,-0.82,9.94,-0.03,-0.01,-0.00,30.99
59069192,2102,1,210814,240609,0.62,-0.83,9.95,-0.03,-0.01,-0.00,30.99
59109191,2093,1,210437,239420,0.60,-0.81,9.95,-0.03,-0.01,-0.00,30.99
59150189,2054,1,210223,238854,0.60,-0.82,9.95,-0.03,-0.01,-0.00,30.99
59190192,2032,1,210125,238679,0.59,-0.82,9.96,-0.03,-0.01,-0.00,30.99
59230192,1980,1,210105,238679,0.60,-0.81,9.92,-0.03,-0.01,-0.00,30.99
59270192,2054,1,210159,238859,0.62,-0.81,9.99,-0.03,-0.01,-0.01,30.99
59310191,2017,1,210216,239232,0.59,-0.82,9.96,-0.03,-0.01,-0.00,30.99
59350192,2032,1,210291,239427,0.60,-0.81,9.95,-0.03,-0.01,-0.00,30.99
59390189,2018,1,210392,239530,0.60,-0.81,9.96,-0.03,-0.01,-0.00,30.99
59430192,2036,1,210356,239605,0.60,-0.81,9.92,-0.03,-0.01,-0.00,30.99
59470189,2046,1,210467,239702,0.59,-0.81,9.95,-0.03,-0.01,-0.00,30.99
59510192,2027,1,210510,240027,0.63,-0.81,9.96,-0.03,-0.01,-0.00,30.99
59550192,2035,1,210545,240179,0.62,-0.84,9.95,-0.03,-0.01,-0.01,30.99
59590192,2053,1,210638,240319,0.59,-0.83,9.98,-0.03,-0.01,-0.01,30.99
59630192,2026,1,210661,240394,0.60,-0.82,9.95,-0.03,-0.01,-0.00,30.99
59670192,2003,1,210665,240453,0.61,-0.85,9.96,-0.03,-0.01,-0.00,30.99
59710192,2010,1,210649,240573,0.62,-0.83,9.96,-0.03,-0.01,-0.00,30.99
59750192,2025,1,210712,240463,0.61,-0.82,9.96,-0.03,-0.01,-0.00,30.99
59790192,2045,1,210535,239217,0.62,-0.82,9.95,-0.03,-0.01,-0.00,30.99
59830192,2062,1,210019,237924,0.62,-0.82,9.99,-0.03,-0.01,-0.01,30.99
59870192,2031,1,209693,237405,0.61,-0.82,9.96,-0.03,-0.01,-0.00,30.99
59910192,2038,1,209627,237274,0.61,-0.81,9.97,-0.03,-0.01,-0.00,30.99
59950192,2036,1,209596,237203,0.62,-0.80,9.94,-0.03,-0.01,-0.00,30.99
59990878,2015,1,209585,237280,0.60,-0.83,9.96,-0.03,-0.01,-0.00,31.15
60029189,2070,1,209671,237583,0.61,-0.80,9.96,-0.03,-0.01,-0.00,31.15
60069192,2074,1,209705,237730,0.63,-0.81,9.96,-0.03,-0.01,-0.00,31.15
60109192,2043,1,209814,237837,0.61,-0.84,9.93,-0.03,-0.01,-0.01,31.15
60149192,2090,1,209931,238038,0.62,-0.82,9.96,-0.03,-0.01,-0.01,31.15
60190213,2031,1,210025,238268,0.61,-0.81,9.97,-0.03,-0.01,-0.00,31.15
60230192,2055,1,210106,238547,0.62,-0.82,9.94,-0.03,-0.01,-0.00,31.15
60270192,2037,1,210264,238892,0.61,-0.80,9.96,-0.03,-0.01,-0.00,31.15
60310192,2052,1,210322,239166,0.60,-0.85,9.94,-0.03,-0.01,-0.00,31.15
60350189,2030,1,210347,239498,0.62,-0.84,9.96,-0.03,-0.01,-0.01,31.15
60390192,1975,1,210493,239765,0.61,-0.85,10.00,-0.03,-0.01,-0.00,31.15
60430189,2079,1,210613,240120,0.62,-0.82,9.96,-0.03,-0.01,-0.00,31.15
60470192,2030,1,210674,240189,0.61,-0.82,9.95,-0.03,-0.01,-0.00,31.15
60510191,2000,1,210554,239091,0.61,-0.82,9.99,-0.03,-0.01,-0.00,31.15
60550192,2065,1,210082,237897,0.63,-0.82,9.98,-0.03,-0.01,-0.00,31.15
60590192,1990,1,209782,237321,0.61,-0.83,9.94,-0.03,-0.01,-0.00,31.15
60630192,2091,1,209696,237146,0.61,-0.84,9.96,-0.03,-0.01,-0.00,31.15
60670192,2037,1,209594,237167,0.62,-0.84,9.95,-0.03,-0.01,-0.00,31.15
60710192,2025,1,209660,237476,0.60,-0.82,9.95,-0.03,-0.01,-0.00,31.15
60750189,2016,1,209885,237830,0.59,-0.83,9.96,-0.03,-0.01,-0.00,31.15
60790243,2154,1,210147,237855,0.62,-0.82,9.97,-0.03,-0.01,-0.01,31.15
60830192,2175,1,209795,238044,0.61,-0.84,9.96,-0.03,-0.01,-0.01,31.15
60870191,2123,1,209866,238311,0.63,-0.83,9.94,-0.03,-0.01,-0.00,31.15
60910191,2010,1,209990,238689,0.61,-0.83,9.96,-0.03,-0.01,-0.00,31.15
60950192,2002,1,210137,239044,0.64,-0.82,9.94,-0.03,-0.01,-0.00,31.15
60990912,1967,1,210299,239306,0.62,-0.83,9.95,-0.03,-0.01,-0.00,31.29
61029192,1983,1,210411,239612,0.62,-0.82,9.96,-0.03,-0.01,-0.00,31.29
61069192,1951,1,210517,239996,0.62,-0.81,9.94,-0.03,-0.01,-0.00,31.29
61109192,1985,1,210655,240376,0.62,-0.83,9.98,-0.03,-0.01,-0.00,31.29
61149192,1978,1,210847,240681,0.61,-0.82,9.96,-0.03,-0.01,-0.01,31.29
61189192,1994,1,210848,241029,0.61,-0.83,9.97,-0.03,-0.01,-0.00,31.29
61230192,1969,1,210835,240242,0.62,-0.82,9.95,-0.03,-0.01,-0.01,31.29
61270192,1995,1,210440,239090,0.62,-0.84,9.99,-0.03,-0.01,-0.01,31.29
61310192,1987,1,210114,238416,0.63,-0.85,9.97,-0.03,-0.01,-0.00,31.29
61350192,1994,1,209962,238260,0.59,-0.82,9.95,-0.03,-0.01,-0.01,31.29
61390192,2017,1,209910,238295,0.60,-0.84,9.96,-0.03,-0.01,-0.01,31.29
61430192,1991,1,209984,238435,0.62,-0.81,9.96,-0.03,-0.01,-0.00,31.29
61470191,2041,1,210074,238674,0.60,-0.83,9.93,-0.03,-0.01,-0.00,31.29
61510192,2019,1,210159,238742,0.59,-0.83,9.96,-0.03,-0.01,-0.00,31.29
61548192,2153,1,210214,238845,0.59,-0.81,9.95,-0.03,-0.01,-0.01,31.29
61588192,2179,1,210214,238956,0.61,-0.83,9.96,-0.03,-0.01,-0.00,31.29
61628189,2149,1,210211,239027,0.61,-0.82,9.97,-0.03,-0.01,-0.00,31.29
61668192,2183,1,210238,239093,0.61,-0.81,9.95,-0.03,-0.01,-0.00,31.29
