timestamp_us,ecg,leads,ir,red,accX,accY,accZ,gyroX,gyroY,gyroZ,temp
1919490,2161,1,204215,242087,0.00,0.00,0.00,0.00,0.00,0.00,0.00
1949964,1920,1,205049,244083,0.54,-0.82,9.68,-0.03,-0.00,-0.00,32.81
1990203,1763,1,206962,246520,0.55,-0.82,9.97,-0.03,0.00,-0.01,32.81
2030174,1638,1,209412,249263,0.54,-0.83,9.95,-0.04,0.00,-0.01,32.81
2070176,1535,1,211380,249525,0.54,-0.85,9.95,-0.04,-0.00,-0.01,32.81
2110193,1503,1,211675,248129,0.52,-0.83,9.98,-0.03,-0.01,-0.01,32.81
2150197,1472,1,211811,247957,0.51,-0.79,9.97,-0.03,-0.02,-0.01,32.81
2190194,1451,1,211728,247488,0.55,-0.83,9.97,-0.04,-0.03,-0.01,32.81
2230197,1472,1,211110,247243,0.57,-0.86,9.93,-0.04,-0.04,-0.01,32.81
2270194,1472,1,210706,247126,0.60,-0.83,9.95,-0.03,-0.03,-0.00,32.81
2310197,1526,1,210193,247278,0.57,-0.84,9.94,-0.03,-0.03,-0.00,32.81
2350193,1616,1,209120,246877,0.58,-0.83,9.95,-0.03,-0.02,-0.00,32.81
2390196,1419,1,194717,245970,0.58,-0.85,9.96,-0.03,-0.01,-0.01,32.81
2430193,330,1,203211,246429,0.60,-0.85,9.93,-0.03,-0.01,-0.00,32.81
2470196,250,1,208411,246359,0.58,-0.84,9.94,-0.03,-0.01,-0.00,32.81
2510193,960,1,208595,246368,0.58,-0.83,9.96,-0.03,-0.01,-0.00,32.81
2550196,1485,1,208879,246331,0.57,-0.84,9.96,-0.03,-0.01,-0.00,32.81
2590193,1882,1,208694,246161,0.57,-0.85,9.98,-0.03,-0.01,-0.00,32.81
2630196,2194,1,208561,246000,0.58,-0.82,9.96,-0.03,-0.01,-0.00,32.81
2670193,2269,1,208411,245329,0.58,-0.82,9.96,-0.03,-0.01,-0.00,32.81
2710196,2432,1,207684,243026,0.55,-0.85,9.95,-0.03,-0.01,-0.00,32.81
2750193,2456,1,206978,242081,0.57,-0.84,9.98,-0.03,-0.01,-0.00,32.81
2790196,2469,1,206959,241922,0.57,-0.83,9.96,-0.03,-0.01,-0.01,32.81
2830193,2401,1,206864,241818,0.55,-0.83,9.95,-0.03,-0.01,-0.00,32.81
2870196,2494,1,206887,241777,0.58,-0.83,9.95,-0.03,-0.01,-0.00,32.81
2910193,2489,1,207118,242076,0.57,-0.83,9.99,-0.03,-0.01,-0.00,32.81
2950196,2559,1,207194,242177,0.57,-0.83,9.96,-0.03,-0.01,-0.00,32.81
2990880,2559,1,207222,242131,0.57,-0.85,9.97,-0.03,-0.01,-0.01,32.77
3029197,2559,1,207102,242016,0.58,-0.82,9.98,-0.03,-0.01,-0.01,32.77
3069193,2512,1,207011,242151,0.59,-0.84,9.96,-0.03,-0.01,-0.00,32.77
3109196,2459,1,207054,242390,0.58,-0.84,9.93,-0.03,-0.01,-0.00,32.77
3149193,2378,1,207047,242561,0.56,-0.82,9.97,-0.03,-0.01,-0.00,32.77
3189227,2320,1,207107,242790,0.57,-0.82,9.95,-0.03,-0.01,-0.00,32.77
3229193,2239,1,207145,242986,0.57,-0.83,9.96,-0.03,-0.01,-0.00,32.77
3269196,2206,1,207182,243137,0.56,-0.82,9.96,-0.03,-0.01,-0.00,32.77
3309193,2143,1,207137,242357,0.58,-0.84,9.96,-0.03,-0.01,-0.00,32.77
3349196,2106,1,206558,240784,0.58,-0.83,9.96,-0.03,-0.01,-0.00,32.77
3389202,2062,1,206158,240223,0.56,-0.84,9.96,-0.03,-0.01,-0.00,32.77
3429196,2046,1,206046,240055,0.58,-0.83,9.94,-0.03,-0.01,-0.01,32.77
3469193,1988,1,205966,240049,0.57,-0.84,9.95,-0.03,-0.01,-0.00,32.77
3509196,2021,1,205977,240218,0.57,-0.82,9.98,-0.03,-0.01,-0.01,32.77
3549193,1921,1,206032,240715,0.58,-0.83,9.96,-0.03,-0.01,-0.00,32.77
3589197,1898,1,206232,240948,0.56,-0.81,9.96,-0.03,-0.01,-0.01,32.77
3629193,1914,1,206229,241003,0.56,-0.85,9.95,-0.03,-0.01,-0.00,32.77
3669197,1907,1,206261,241085,0.58,-0.83,9.93,-0.03,-0.01,-0.00,32.77
3709194,1899,1,206288,241373,0.56,-0.82,9.97,-0.03,-0.01,-0.00,32.77
3749196,1907,1,206408,241656,0.55,-0.82,9.99,-0.03,-0.01,-0.00,32.77
3789193,1823,1,206420,241827,0.57,-0.84,9.93,-0.03,-0.01,-0.00,32.77
3829197,1856,1,206501,242098,0.59,-0.83,9.96,-0.03,-0.01,-0.01,32.77
3869193,1865,1,206523,242344,0.58,-0.82,9.95,-0.03,-0.01,-0.00,32.77
3909196,1915,1,206627,242560,0.57,-0.82,9.95,-0.03,-0.01,-0.01,32.77
3949194,1754,1,206643,242419,0.59,-0.82,9.98,-0.03,-0.01,-0.01,32.77
3989196,1872,1,206283,240745,0.55,-0.84,9.95,-0.03,-0.01,-0.00,32.77
4029880,1846,1,205672,239875,0.57,-0.82,9.96,-0.03,-0.01,-0.00,32.75
4070196,1918,1,205481,239818,0.57,-0.83,9.95,-0.03,-0.01,-0.01,32.75
4110193,1878,1,205503,239928,0.55,-0.82,9.96,-0.03,-0.01,-0.00,32.75
4150196,1863,1,205558,240179,0.57,-0.84,9.94,-0.03,-0.01,-0.00,32.75
4190193,1875,1,205715,240792,0.56,-0.84,9.96,-0.03,-0.01,-0.01,32.75
4228196,1917,1,205986,241316,0.58,-0.84,9.99,-0.03,-0.01,-0.00,32.75
4268193,1938,1,206071,241462,0.57,-0.84,9.96,-0.03,-0.01,-0.00,32.75
4308196,1949,1,206114,241499,0.58,-0.83,9.96,-0.03,-0.01,-0.01,32.75
4348194,1988,1,206141,241644,0.57,-0.84,9.96,-0.03,-0.01,-0.01,32.75
4388196,2043,1,206221,241750,0.55,-0.85,9.97,-0.03,-0.01,-0.00,32.75
4428193,1980,1,206188,241948,0.57,-0.84,9.96,-0.03,-0.01,-0.01,32.75
4468196,1947,1,206234,242039,0.58,-0.82,9.95,-0.03,-0.01,-0.00,32.75
4508193,1935,1,206329,242331,0.56,-0.82,9.97,-0.03,-0.01,-0.01,32.75
4548196,1968,1,206501,242603,0.57,-0.84,9.96,-0.03,-0.01,-0.00,32.75
4588193,2000,1,206525,242186,0.56,-0.83,9.97,-0.03,-0.01,-0.00,32.75
4628196,1990,1,206056,240343,0.55,-0.84,9.97,-0.03,-0.01,-0.01,32.75
4668193,2000,1,205569,239539,0.56,-0.83,9.97,-0.03,-0.01,-0.00,32.75
4708196,2006,1,205394,239373,0.55,-0.84,9.97,-0.03,-0.01,-0.00,32.75
4748193,1996,1,205287,239377,0.56,-0.85,9.97,-0.03,-0.01,-0.01,32.75
4788196,1988,1,205256,239359,0.59,-0.83,9.98,-0.03,-0.01,-0.00,32.75
4828213,2002,1,205343,239676,0.59,-0.85,9.97,-0.03,-0.01,-0.00,32.75
4868196,1994,1,205398,239865,0.59,-0.83,9.98,-0.03,-0.01,-0.00,32.75
4908193,1968,1,205369,239988,0.56,-0.83,9.97,-0.03,-0.01,-0.01,32.75
4948196,1961,1,205434,240184,0.57,-0.84,9.96,-0.03,-0.01,-0.00,32.75
4988193,1977,1,205474,240442,0.56,-0.85,9.93,-0.03,-0.01,-0.01,32.75
5028214,2065,1,205596,240649,0.57,-0.84,9.96,-0.03,-0.01,-0.00,32.75
5068880,1958,1,205633,240856,0.53,-0.82,9.98,-0.03,-0.01,-0.00,32.59
5109197,1965,1,205711,241208,0.57,-0.84,9.96,-0.03,-0.01,-0.00,32.59
5149193,1991,1,205823,241547,0.56,-0.84,9.94,-0.03,-0.01,-0.00,32.59
5189196,1963,1,205888,241878,0.57,-0.84,9.95,-0.03,-0.01,-0.00,32.59
5229207,1959,1,205869,240994,0.56,-0.83,9.94,-0.03,-0.01,-0.00,32.59
5269196,1971,1,205300,239454,0.57,-0.84,9.96,-0.03,-0.01,-0.00,32.59
5309193,1968,1,204992,239074,0.57,-0.83,9.94,-0.03,-0.01,-0.00,32.59
5349196,1999,1,204889,239001,0.59,-0.83,9.96,-0.03,-0.01,-0.00,32.59
5389193,1951,1,204870,238943,0.57,-0.84,9.96,-0.03,-0.01,-0.00,32.59
5429196,1958,1,204809,238878,0.58,-0.82,9.94,-0.03,-0.01,-0.01,32.59
5469193,1949,1,204724,239068,0.58,-0.85,9.95,-0.03,-0.01,-0.00,32.59
5509196,1915,1,204781,239229,0.58,-0.85,9.96,-0.03,-0.01,-0.00,32.59
5549193,1910,1,204825,239287,0.56,-0.83,9.95,-0.03,-0.01,-0.00,32.59
5589196,1930,1,204818,239318,0.56,-0.83,9.95,-0.03,-0.01,-0.00,32.59
5629193,1984,1,204805,239416,0.55,-0.84,9.97,-0.03,-0.01,-0.00,32.59
5669196,1933,1,204805,239511,0.58,-0.84,9.96,-0.03,-0.01,-0.00,32.59
5709193,1967,1,204844,239679,0.58,-0.81,9.94,-0.03,-0.01,-0.01,32.59
5749197,1985,1,204935,239915,0.57,-0.84,9.96,-0.03,-0.01,-0.00,32.59
5789193,1984,1,204933,240107,0.57,-0.83,9.95,-0.03,-0.01,-0.00,32.59
5829196,1901,1,204928,240156,0.56,-0.83,9.97,-0.03,-0.01,-0.00,32.59
5869193,1923,1,204866,239538,0.58,-0.85,9.94,-0.03,-0.01,-0.00,32.59
5909196,1971,1,204341,238100,0.58,-0.83,9.93,-0.03,-0.01,-0.00,32.59
5949193,1921,1,203878,237374,0.56,-0.84,9.97,-0.03,-0.01,-0.00,32.59
5989197,1947,1,203691,237109,0.57,-0.82,9.96,-0.03,-0.01,-0.00,32.59
6029193,1905,1,203618,236968,0.57,-0.83,9.98,-0.03,-0.01,-0.01,32.59
6069883,1875,1,203663,236972,0.58,-0.86,9.95,-0.04,-0.01,-0.00,32.59
6108194,1970,1,203511,237242,0.58,-0.84,9.97,-0.03,-0.01,-0.00,32.59
6148196,1962,1,203624,237549,0.58,-0.84,9.97,-0.03,-0.01,-0.00,32.59
6188194,1989,1,203699,237666,0.58,-0.84,9.96,-0.03,-0.01,-0.00,32.59
6228196,1936,1,203735,237768,0.59,-0.82,9.97,-0.03,-0.01,-0.00,32.59
6268193,1963,1,203684,237859,0.59,-0.82,9.96,-0.03,-0.01,-0.01,32.59
6308196,2003,1,203722,238073,0.57,-0.82,9.96,-0.03,-0.01,-0.01,32.59
6348193,1968,1,203783,238315,0.57,-0.82,9.95,-0.03,-0.01,-0.00,32.59
6388196,2053,1,203858,238558,0.57,-0.84,9.94,-0.03,-0.01,-0.01,32.59
6428194,2000,1,203798,238901,0.57,-0.83,9.96,-0.03,-0.01,-0.01,32.59
6468196,2001,1,204010,239236,0.55,-0.82,9.96,-0.03,-0.01,-0.00,32.59
6508193,1990,1,204100,238960,0.58,-0.84,9.95,-0.03,-0.01,-0.00,32.59
6548196,2078,1,203600,237423,0.55,-0.82,9.95,-0.03,-0.01,-0.00,32.59
6588193,2054,1,203138,236659,0.57,-0.84,9.95,-0.03,-0.01,-0.01,32.59
6628197,2064,1,203163,236371,0.60,-0.84,9.96,-0.03,-0.01,-0.00,32.59
6668198,2161,1,203106,236245,0.56,-0.83,9.96,-0.03,-0.01,-0.01,32.59
6708196,2199,1,203081,236130,0.55,-0.80,9.96,-0.03,-0.01,-0.01,32.59
6748193,2205,1,203014,236487,0.57,-0.85,9.96,-0.03,-0.01,-0.00,32.59
6788196,2205,1,203099,236714,0.56,-0.83,9.97,-0.03,-0.01,-0.00,32.59
6828193,2181,1,203114,236794,0.57,-0.82,9.98,-0.03,-0.01,-0.00,32.59
6868197,2090,1,203133,236858,0.58,-0.85,9.96,-0.03,-0.01,-0.00,32.59
6908193,2096,1,203163,237037,0.57,-0.83,9.97,-0.03,-0.01,-0.00,32.59
6948196,2112,1,203299,237184,0.57,-0.83,9.96,-0.03,-0.01,-0.00,32.59
6988193,2119,1,203372,237313,0.56,-0.83,9.94,-0.03,-0.01,-0.00,32.59
7028196,2160,1,203476,237528,0.61,-0.82,9.95,-0.03,-0.01,-0.00,32.59
7068193,2149,1,203463,237636,0.57,-0.85,9.95,-0.03,-0.01,-0.01,32.59
7108883,2073,1,203376,237828,0.56,-0.81,9.98,-0.03,-0.01,-0.00,32.61
7149193,2014,1,203460,237479,0.58,-0.83,9.95,-0.03,-0.01,-0.00,32.61
7189196,2057,1,203103,236054,0.57,-0.84,9.99,-0.03,-0.01,-0.00,32.61
7229193,2037,1,202510,234945,0.58,-0.83,9.98,-0.03,-0.01,-0.01,32.61
7269196,2034,1,202294,234421,0.57,-0.83,9.96,-0.03,-0.01,-0.00,32.61
7309193,2045,1,202187,234210,0.58,-0.83,9.98,-0.03,-0.01,-0.00,32.61
7349196,2003,1,202177,234286,0.57,-0.84,9.93,-0.03,-0.01,-0.00,32.61
7389193,1975,1,202252,234672,0.56,-0.84,9.97,-0.03,-0.01,-0.00,32.61
7429196,2070,1,202423,234970,0.58,-0.83,9.98,-0.03,-0.01,-0.00,32.61
7469194,2106,1,202443,235125,0.59,-0.85,9.96,-0.03,-0.01,-0.00,32.61
7509196,2077,1,202561,235176,0.56,-0.81,9.95,-0.03,-0.01,-0.01,32.61
7549196,2063,1,202498,235366,0.57,-0.83,9.94,-0.03,-0.01,-0.01,32.61
7589196,2033,1,202591,235518,0.56,-0.81,9.95,-0.03,-0.01,-0.01,32.61
7629193,2019,1,202641,235693,0.59,-0.83,9.95,-0.03,-0.01,-0.01,32.61
7669197,1943,1,202697,236010,0.58,-0.84,9.97,-0.03,-0.01,-0.01,32.61
7709194,1953,1,202718,236211,0.56,-0.82,9.98,-0.03,-0.01,-0.00,32.61
7749197,2005,1,202832,236478,0.59,-0.80,9.96,-0.03,-0.01,-0.01,32.61
7789194,1866,1,202890,236197,0.57,-0.83,9.96,-0.03,-0.01,-0.00,32.61
7827197,2015,1,202609,234547,0.58,-0.82,9.97,-0.03,-0.01,-0.01,32.61
7867193,2032,1,201984,233224,0.55,-0.83,9.96,-0.03,-0.01,-0.00,32.61
7907196,2015,1,201706,232652,0.59,-0.82,9.95,-0.03,-0.01,-0.01,32.61
7947193,2017,1,201573,232549,0.56,-0.84,9.98,-0.03,-0.01,-0.00,32.61
7987196,1952,1,201519,232501,0.60,-0.84,9.97,-0.03,-0.01,-0.00,32.61
8027193,1967,1,201541,232858,0.58,-0.84,9.99,-0.03,-0.01,-0.00,32.61
8067196,1999,1,201664,233095,0.56,-0.85,9.97,-0.03,-0.01,-0.01,32.61
8107194,1992,1,201757,233231,0.57,-0.83,9.96,-0.03,-0.01,-0.00,32.61
8147883,1910,1,201822,233239,0.58,-0.81,9.95,-0.03,-0.01,-0.00,32.55
8188193,1947,1,201850,233391,0.55,-0.82,9.97,-0.03,-0.01,-0.01,32.55
8228196,1926,1,201947,233443,0.58,-0.82,9.95,-0.03,-0.01,-0.00,32.55
8268193,1970,1,201943,233772,0.57,-0.83,9.96,-0.03,-0.01,-0.00,32.55
8308232,1967,1,202071,234086,0.57,-0.83,9.95,-0.03,-0.01,-0.01,32.55
8348193,1995,1,202147,234326,0.58,-0.83,9.97,-0.03,-0.01,-0.00,32.55
8388197,2004,1,202216,234663,0.58,-0.83,9.96,-0.03,-0.01,-0.00,32.55
8428194,2005,1,202294,234850,0.57,-0.83,9.95,-0.03,-0.01,-0.00,32.55
8468197,2054,1,202202,233710,0.56,-0.83,9.94,-0.03,-0.01,-0.00,32.55
8508231,2018,1,201696,232230,0.57,-0.85,9.95,-0.03,-0.01,-0.00,32.55
8548196,2032,1,201391,231607,0.57,-0.83,9.92,-0.03,-0.01,-0.00,32.55
8588193,2087,1,201287,231562,0.57,-0.82,9.95,-0.03,-0.01,-0.00,32.55
8628196,2046,1,201351,231651,0.58,-0.83,9.94,-0.03,-0.01,-0.00,32.55
8668194,2034,1,201287,232007,0.57,-0.84,9.95,-0.03,-0.01,-0.01,32.55
8708196,2061,1,201421,232495,0.58,-0.83,9.92,-0.03,-0.01,-0.00,32.55
8748194,2066,1,201582,232818,0.57,-0.83,9.96,-0.03,-0.01,-0.00,32.55
8788197,2039,1,201704,233017,0.56,-0.86,9.94,-0.03,-0.01,-0.00,32.55
8828194,2054,1,201732,233355,0.57,-0.85,9.95,-0.03,-0.01,-0.00,32.55
8868196,2079,1,201846,233617,0.56,-0.83,9.94,-0.03,-0.01,-0.00,32.55
8908193,2096,1,201918,233951,0.56,-0.83,9.97,-0.03,-0.01,-0.00,32.55
8947196,2160,1,202005,234304,0.56,-0.82,9.97,-0.03,-0.01,-0.00,32.55
8987193,2138,1,202066,234689,0.56,-0.83,9.96,-0.03,-0.01,-0.01,32.55
9027196,2130,1,202262,234999,0.57,-0.83,9.96,-0.03,-0.01,-0.00,32.55
9067193,2139,1,202374,235275,0.58,-0.83,9.98,-0.03,-0.01,-0.00,32.55
9107196,2112,1,202431,235144,0.58,-0.83,9.94,-0.03,-0.01,-0.00,32.55
9147880,1988,1,202183,233784,0.56,-0.83,9.96,-0.03,-0.01,-0.00,32.45
9188197,2034,1,201817,232898,0.56,-0.85,9.96,-0.03,-0.01,-0.00,32.45
9228193,1972,1,201567,232586,0.55,-0.84,9.98,-0.03,-0.01,-0.00,32.45
9268197,1957,1,201552,232497,0.55,-0.82,9.95,-0.03,-0.01,-0.01,32.45
9308193,2001,1,201460,232647,0.56,-0.83,9.97,-0.03,-0.01,-0.00,32.45
9348196,1981,1,201611,232999,0.57,-0.84,9.94,-0.03,-0.01,-0.00,32.45
9388193,1988,1,201760,233231,0.56,-0.84,9.97,-0.03,-0.01,-0.00,32.45
9428197,2014,1,201784,233342,0.56,-0.82,9.97,-0.03,-0.01,-0.00,32.45
9468193,1946,1,201867,233520,0.57,-0.83,9.95,-0.03,-0.01,-0.00,32.45
9508196,1983,1,201938,233678,0.57,-0.84,9.96,-0.03,-0.01,-0.01,32.45
9548194,1975,1,202010,233851,0.58,-0.84,9.96,-0.03,-0.01,-0.00,32.45
9588196,1955,1,202110,233940,0.56,-0.83,9.97,-0.03,-0.01,-0.01,32.45
9628194,1953,1,202134,234185,0.57,-0.83,9.99,-0.03,-0.01,-0.01,32.45
9668197,1959,1,202285,234375,0.57,-0.83,9.95,-0.03,-0.01,-0.01,32.45
9708194,1947,1,202311,234567,0.54,-0.85,9.96,-0.03,-0.01,-0.00,32.45
9748196,1970,1,202365,234413,0.56,-0.82,9.94,-0.03,-0.01,-0.00,32.45
9788193,1947,1,202188,233379,0.58,-0.84,9.93,-0.03,-0.01,-0.00,32.45
9828196,1978,1,201741,232307,0.56,-0.83,9.95,-0.03,-0.01,-0.00,32.45
9868193,1936,1,201463,231880,0.57,-0.82,9.98,-0.03,-0.01,-0.00,32.45
9908196,1967,1,201376,231770,0.56,-0.82,9.96,-0.03,-0.01,-0.00,32.45
9947228,1998,1,201323,231792,0.57,-0.84,9.95,-0.03,-0.01,-0.00,32.45
9987197,1981,1,201396,232126,0.56,-0.83,9.97,-0.03,-0.01,-0.00,32.45
10027193,1953,1,201491,232463,0.56,-0.84,9.98,-0.03,-0.01,-0.01,32.45
10067197,1941,1,201602,232732,0.54,-0.83,9.97,-0.03,-0.01,-0.00,32.45
10107196,1908,1,201648,232886,0.56,-0.82,9.95,-0.03,-0.01,-0.01,32.45
10147907,1926,1,201604,233053,0.55,-0.85,9.98,-0.03,-0.01,-0.00,32.47
10188196,1947,1,201673,233286,0.58,-0.82,9.95,-0.03,-0.01,-0.00,32.47
10228196,1963,1,201704,233511,0.56,-0.83,9.95,-0.03,-0.01,-0.00,32.47
10268197,1975,1,201655,233677,0.56,-0.85,9.94,-0.03,-0.01,-0.01,32.47
10308196,1974,1,201701,233902,0.57,-0.83,9.96,-0.03,-0.01,-0.00,32.47
10348210,1892,1,201729,234235,0.55,-0.85,9.98,-0.03,-0.01,-0.01,32.47
10388196,1931,1,201867,234429,0.55,-0.83,9.97,-0.03,-0.01,-0.01,32.47
10428197,1966,1,201878,234043,0.57,-0.83,9.97,-0.03,-0.01,-0.00,32.47
10468196,1979,1,201581,232973,0.57,-0.82,9.96,-0.03,-0.01,-0.00,32.47
10508194,1991,1,201276,232267,0.56,-0.83,9.96,-0.03,-0.01,-0.00,32.47
10548197,1998,1,201061,231858,0.55,-0.83,9.96,-0.03,-0.01,-0.00,32.47
10588194,1978,1,200871,231645,0.58,-0.83,9.96,-0.03,-0.01,-0.00,32.47
10628197,1949,1,200854,231660,0.59,-0.84,9.95,-0.03,-0.01,-0.01,32.47
10668197,1945,1,200829,232033,0.57,-0.84,9.95,-0.03,-0.01,-0.00,32.47
10708197,1933,1,200978,232339,0.57,-0.83,9.97,-0.03,-0.01,-0.00,32.47
10748196,1919,1,200991,232486,0.58,-0.83,9.97,-0.03,-0.01,-0.00,32.47
10788196,1852,1,201065,232738,0.58,-0.83,9.96,-0.03,-0.01,-0.00,32.47
10828194,1893,1,201164,233003,0.58,-0.85,9.95,-0.03,-0.01,-0.00,32.47
10868197,2001,1,201279,233320,0.57,-0.82,9.95,-0.03,-0.01,-0.01,32.47
10906197,2033,1,201453,233666,0.58,-0.83,9.96,-0.03,-0.01,-0.00,32.47
10946197,2118,1,201543,233878,0.57,-0.83,9.96,-0.03,-0.01,-0.00,32.47
10986196,2125,1,201602,234150,0.58,-0.83,9.94,-0.03,-0.01,-0.00,32.47
11026199,2183,1,201741,234415,0.57,-0.83,9.96,-0.03,-0.01,-0.01,32.47
11066197,2130,1,201857,234725,0.57,-0.82,9.96,-0.03,-0.01,-0.00,32.47
11106197,2149,1,201914,234743,0.57,-0.82,9.95,-0.03,-0.01,-0.00,32.47
11146196,2121,1,201865,234036,0.56,-0.82,9.93,-0.03,-0.01,-0.00,32.47
11186883,2027,1,201677,233105,0.58,-0.84,9.96,-0.03,-0.01,-0.00,32.35
11227196,2096,1,201496,232698,0.58,-0.83,9.95,-0.03,-0.01,-0.00,32.35
11267197,2062,1,201461,232616,0.56,-0.84,9.95,-0.03,-0.01,-0.00,32.35
11307196,2085,1,201400,232687,0.56,-0.84,9.94,-0.03,-0.01,-0.01,32.35
11347197,2064,1,201473,232894,0.57,-0.82,9.96,-0.03,-0.01,-0.00,32.35
11387194,2090,1,201588,233206,0.57,-0.83,9.97,-0.03,-0.01,-0.00,32.35
11427196,2064,1,201694,233473,0.57,-0.84,9.97,-0.03,-0.01,-0.00,32.35
11467194,2064,1,201733,233644,0.58,-0.84,9.96,-0.03,-0.01,-0.00,32.35
11507197,2018,1,201803,233919,0.57,-0.84,9.94,-0.03,-0.01,-0.00,32.35
11547196,2047,1,201869,234153,0.57,-0.82,9.97,-0.03,-0.01,-0.00,32.35
11587202,2016,1,201947,234383,0.57,-0.81,9.95,-0.03,-0.01,-0.00,32.35
11627196,2030,1,202029,234616,0.59,-0.84,9.95,-0.03,-0.01,-0.00,32.35
11667197,1990,1,202122,234813,0.58,-0.85,9.97,-0.03,-0.01,-0.00,32.35
11707196,2038,1,202255,235050,0.57,-0.83,9.99,-0.03,-0.01,-0.00,32.35
11747197,1972,1,202313,235259,0.58,-0.83,9.96,-0.03,-0.01,-0.00,32.35
11787233,2040,1,202336,235475,0.56,-0.80,9.95,-0.03,-0.01,-0.01,32.35
11827197,2011,1,202401,235345,0.59,-0.83,9.97,-0.03,-0.01,-0.01,32.35
11867196,1987,1,202056,234470,0.58,-0.81,9.93,-0.03,-0.01,-0.00,32.35
11907197,1985,1,201775,233961,0.58,-0.83,9.96,-0.03,-0.01,-0.01,32.35
11947197,1984,1,201695,233803,0.57,-0.82,9.96,-0.03,-0.01,-0.00,32.35
11987217,1965,1,201718,233815,0.55,-0.83,9.95,-0.03,-0.01,-0.00,32.35
12027197,1979,1,201670,233959,0.57,-0.83,9.96,-0.03,-0.01,-0.00,32.35
12067197,1986,1,201718,234191,0.56,-0.83,9.97,-0.03,-0.01,-0.01,32.35
12107196,1995,1,201844,234374,0.58,-0.84,9.96,-0.03,-0.01,-0.01,32.35
12147197,1990,1,201899,234519,0.56,-0.82,9.95,-0.03,-0.01,-0.01,32.35
12187883,1954,1,201872,234631,0.57,-0.82,9.99,-0.03,-0.01,-0.00,32.41
12226197,2064,1,201905,234792,0.56,-0.84,9.96,-0.03,-0.01,-0.01,32.41
12266196,2033,1,201981,234955,0.58,-0.84,9.97,-0.03,-0.01,-0.00,32.41
12306196,2069,1,202082,235165,0.58,-0.83,9.96,-0.03,-0.01,-0.00,32.41
12346196,2127,1,202096,235281,0.58,-0.80,9.98,-0.03,-0.01,-0.00,32.41
12386196,2122,1,202170,235474,0.57,-0.81,9.95,-0.03,-0.01,-0.00,32.41
12426194,2125,1,202244,235755,0.57,-0.84,9.95,-0.03,-0.01,-0.00,32.41
12466197,2106,1,202321,236119,0.58,-0.84,9.97,-0.03,-0.01,-0.00,32.41
12506197,2127,1,202288,235790,0.55,-0.83,9.96,-0.03,-0.01,-0.00,32.41
12546197,2041,1,202071,234877,0.57,-0.83,9.96,-0.03,-0.01,-0.00,32.41
12586196,2033,1,201901,234499,0.57,-0.85,9.97,-0.03,-0.01,-0.00,32.41
12626196,2000,1,201891,234376,0.58,-0.84,9.95,-0.03,-0.01,-0.00,32.41
12666196,2023,1,201787,234413,0.57,-0.84,9.97,-0.03,-0.01,-0.01,32.41
12706196,2063,1,201767,234585,0.57,-0.84,10.00,-0.03,-0.01,-0.01,32.41
12746197,2091,1,201935,234867,0.57,-0.81,9.96,-0.03,-0.01,-0.01,32.41
12786197,2044,1,202028,234976,0.57,-0.82,9.97,-0.03,-0.01,-0.00,32.41
12826193,2003,1,202059,235077,0.59,-0.83,9.93,-0.03,-0.01,-0.00,32.41
12866197,2001,1,202100,235244,0.56,-0.83,9.98,-0.03,-0.01,-0.01,32.41
12906196,2035,1,202197,235377,0.57,-0.83,9.96,-0.03,-0.01,-0.00,32.41
12946197,2013,1,202259,235475,0.57,-0.82,9.98,-0.03,-0.01,-0.00,32.41
12986196,2033,1,202304,235622,0.59,-0.83,9.97,-0.03,-0.01,-0.01,32.41
13027196,2006,1,202340,235801,0.56,-0.84,9.96,-0.03,-0.01,-0.00,32.41
13067196,2061,1,202378,235902,0.57,-0.81,9.97,-0.03,-0.01,-0.00,32.41
13107196,2093,1,202429,235969,0.54,-0.83,9.94,-0.03,-0.01,-0.00,32.41
13147194,2036,1,202358,236049,0.59,-0.84,9.97,-0.03,-0.01,-0.00,32.41
13187196,1998,1,202404,236186,0.57,-0.81,9.95,-0.03,-0.01,-0.00,32.41
13227880,1943,1,202443,235765,0.55,-0.83,9.98,-0.03,-0.01,-0.01,32.31
13266197,2062,1,202121,234591,0.57,-0.84,9.95,-0.03,-0.01,-0.00,32.31
13306196,2099,1,201722,233903,0.57,-0.84,9.95,-0.03,-0.01,-0.00,32.31
13346197,1981,1,201579,233580,0.58,-0.83,9.96,-0.03,-0.01,-0.00,32.31
13386196,2014,1,201494,233410,0.57,-0.83,9.92,-0.03,-0.01,-0.00,32.31
13426210,2081,1,201488,233413,0.57,-0.83,9.96,-0.03,-0.01,-0.00,32.31
13466196,1962,1,201499,233589,0.57,-0.83,9.95,-0.03,-0.01,-0.01,32.31
13506196,2029,1,201566,233785,0.56,-0.82,9.96,-0.03,-0.01,-0.00,32.31
13546196,2019,1,201652,233917,0.54,-0.82,9.95,-0.03,-0.01,-0.00,32.31
13586197,2061,1,201666,234068,0.57,-0.83,9.95,-0.03,-0.01,-0.00,32.31
13626202,1984,1,201672,234214,0.56,-0.84,9.96,-0.03,-0.01,-0.00,32.31
13666197,2038,1,201771,234384,0.58,-0.84,9.94,-0.03,-0.01,-0.00,32.31
13706197,2000,1,201793,234632,0.57,-0.83,9.95,-0.03,-0.01,-0.00,32.31
13746197,2046,1,201873,234820,0.57,-0.83,9.96,-0.03,-0.01,-0.01,32.31
13786196,2065,1,201869,235024,0.57,-0.82,9.95,-0.03,-0.01,-0.00,32.31
13826197,1984,1,201949,235255,0.57,-0.83,9.95,-0.03,-0.01,-0.00,32.31
13866194,1982,1,202026,235425,0.56,-0.83,9.98,-0.03,-0.01,-0.01,32.31
13906197,2045,1,202129,235635,0.56,-0.83,9.94,-0.03,-0.01,-0.00,32.31
13946197,2039,1,202159,235415,0.57,-0.82,9.97,-0.03,-0.01,-0.00,32.31
13986197,2095,1,201915,234301,0.57,-0.85,9.94,-0.03,-0.01,-0.00,32.31
14026199,2005,1,201551,233465,0.56,-0.80,9.97,-0.03,-0.01,-0.00,32.31
14066196,2011,1,201333,233148,0.58,-0.82,9.93,-0.03,-0.01,-0.00,32.31
14106194,2006,1,201277,233085,0.57,-0.85,9.93,-0.03,-0.01,-0.00,32.31
14146197,2030,1,201333,233214,0.59,-0.81,9.98,-0.03,-0.01,-0.00,32.31
14186194,2039,1,201378,233495,0.56,-0.81,9.96,-0.03,-0.01,-0.01,32.31
14226196,2054,1,201506,233780,0.56,-0.84,9.97,-0.03,-0.01,-0.00,32.31
14266883,2014,1,201445,233966,0.58,-0.82,9.95,-0.03,-0.01,-0.01,32.21
14305196,2121,1,201494,234108,0.57,-0.82,9.97,-0.03,-0.01,-0.00,32.21
14345194,2090,1,201603,234404,0.57,-0.84,9.94,-0.03,-0.01,-0.00,32.21
14385196,2128,1,201703,234683,0.55,-0.83,9.97,-0.03,-0.01,-0.00,32.21
14425196,2126,1,201767,234972,0.57,-0.80,9.94,-0.03,-0.01,-0.00,32.21
14465196,2079,1,201909,235379,0.58,-0.83,9.95,-0.03,-0.01,-0.00,32.21
14505196,2034,1,201992,235665,0.55,-0.83,9.97,-0.03,-0.01,-0.00,32.21
14545196,2080,1,202173,236015,0.58,-0.83,9.95,-0.03,-0.01,-0.01,32.21
14585196,2108,1,202332,236410,0.56,-0.82,9.95,-0.03,-0.01,-0.01,32.21
14625196,2064,1,202487,236755,0.58,-0.81,9.97,-0.03,-0.01,-0.00,32.21
14665194,2123,1,202545,236597,0.57,-0.84,9.96,-0.03,-0.01,-0.01,32.21
14705196,2053,1,202288,235389,0.57,-0.85,9.97,-0.03,-0.01,-0.00,32.21
14745197,2096,1,201890,234554,0.57,-0.84,9.96,-0.03,-0.01,-0.00,32.21
14785196,2125,1,201748,234189,0.57,-0.83,9.95,-0.03,-0.01,-0.00,32.21
14825194,2096,1,201671,234116,0.57,-0.82,9.94,-0.03,-0.01,-0.00,32.21
14865196,2096,1,201666,234208,0.59,-0.83,9.96,-0.03,-0.01,-0.00,32.21
14905194,2091,1,201733,234596,0.58,-0.82,9.95,-0.03,-0.01,-0.00,32.21
14945197,2110,1,201863,234836,0.59,-0.83,9.96,-0.03,-0.01,-0.00,32.21
14985197,2077,1,201921,234995,0.58,-0.84,9.97,-0.03,-0.01,-0.00,32.21
15025203,2112,1,202007,235102,0.56,-0.83,9.95,-0.03,-0.01,-0.01,32.21
15065197,2109,1,201932,235342,0.58,-0.83,9.97,-0.03,-0.01,-0.01,32.21
15105196,2071,1,202035,235615,0.57,-0.84,9.97,-0.03,-0.01,-0.00,32.21
15145194,2101,1,202095,235889,0.56,-0.83,9.94,-0.03,-0.01,-0.00,32.21
15185196,2093,1,202147,236019,0.57,-0.83,9.98,-0.03,-0.01,-0.00,32.21
15225194,2090,1,202117,236225,0.58,-0.83,9.95,-0.03,-0.01,-0.00,32.21
15265197,2086,1,202188,236353,0.57,-0.83,9.98,-0.03,-0.01,-0.00,32.21
15305880,2027,1,202339,236489,0.56,-0.83,9.94,-0.03,-0.01,-0.00,32.25
15346197,2025,1,202461,236647,0.56,-0.84,9.99,-0.03,-0.01,-0.00,32.25
15386194,1934,1,202361,235833,0.58,-0.84,9.95,-0.03,-0.01,-0.01,32.25
15426196,1990,1,201880,234573,0.58,-0.82,9.95,-0.03,-0.01,-0.00,32.25
15466194,1991,1,201566,233958,0.56,-0.83,9.95,-0.03,-0.01,-0.00,32.25
15506197,2009,1,201497,233833,0.58,-0.83,9.98,-0.03,-0.01,-0.01,32.25
15546197,2069,1,201497,233807,0.57,-0.84,9.97,-0.03,-0.01,-0.00,32.25
15586197,2022,1,201509,234059,0.58,-0.84,9.98,-0.03,-0.01,-0.00,32.25
15626194,2020,1,201663,234334,0.56,-0.83,9.97,-0.03,-0.01,-0.01,32.25
15666196,2007,1,201704,234512,0.59,-0.83,9.92,-0.03,-0.01,-0.00,32.25
15706196,2028,1,201701,234574,0.57,-0.84,9.97,-0.03,-0.01,-0.00,32.25
15746197,1988,1,201754,234663,0.58,-0.82,9.96,-0.03,-0.01,-0.01,32.25
15786197,1995,1,201769,234832,0.57,-0.83,9.95,-0.03,-0.01,-0.00,32.25
15826197,1982,1,201834,234932,0.57,-0.83,9.96,-0.03,-0.01,-0.01,32.25
15866197,1989,1,201942,234973,0.57,-0.83,9.96,-0.03,-0.01,-0.00,32.25
15906197,2007,1,201945,234967,0.59,-0.81,9.96,-0.03,-0.01,-0.00,32.25
15946194,2032,1,201998,235127,0.58,-0.84,9.96,-0.03,-0.01,-0.00,32.25
15986197,2061,1,202100,235281,0.57,-0.83,9.94,-0.03,-0.01,-0.00,32.25
16026199,2035,1,202143,235332,0.57,-0.84,9.97,-0.03,-0.01,-0.00,32.25
16066197,2013,1,202073,234332,0.57,-0.83,9.97,-0.03,-0.01,-0.00,32.25
16106197,1998,1,201547,233031,0.59,-0.81,9.95,-0.03,-0.01,-0.00,32.25
16146197,1993,1,201160,232219,0.57,-0.84,9.97,-0.03,-0.01,-0.00,32.25
16186196,2013,1,200995,232069,0.60,-0.84,9.97,-0.03,-0.01,-0.00,32.25
16226197,1983,1,201026,232031,0.57,-0.84,9.93,-0.03,-0.01,-0.00,32.25
16266194,1982,1,201026,232275,0.58,-0.84,9.95,-0.03,-0.01,-0.01,32.25
16306883,1995,1,201181,232593,0.56,-0.82,9.96,-0.03,-0.01,-0.00,32.11
16345196,2018,1,201204,232849,0.58,-0.84,9.96,-0.03,-0.01,-0.00,32.11
16385197,1951,1,201303,232983,0.58,-0.83,9.93,-0.03,-0.01,-0.00,32.11
16425194,2032,1,201334,233245,0.58,-0.84,9.96,-0.03,-0.01,-0.00,32.11
16465196,2032,1,201451,233408,0.56,-0.83,9.95,-0.03,-0.01,-0.01,32.11
16505197,2019,1,201496,233621,0.56,-0.85,9.96,-0.03,-0.01,-0.00,32.11
16545196,1984,1,201653,233888,0.57,-0.83,9.96,-0.03,-0.01,-0.00,32.11
16585194,2020,1,201694,234149,0.56,-0.82,9.95,-0.03,-0.01,-0.00,32.11
16625197,2047,1,201799,234414,0.57,-0.83,9.96,-0.03,-0.01,-0.00,32.11
16665196,2018,1,201832,234718,0.59,-0.82,9.97,-0.03,-0.01,-0.00,32.11
16705251,2013,1,201941,234962,0.57,-0.83,9.95,-0.03,-0.01,-0.00,32.11
16745193,2033,1,201974,234873,0.57,-0.83,9.97,-0.03,-0.01,-0.00,32.11
16785197,2046,1,201761,233618,0.56,-0.83,9.98,-0.03,-0.01,-0.00,32.11
16825196,2005,1,201267,232359,0.58,-0.84,9.97,-0.03,-0.01,-0.01,32.11
16865196,2028,1,200976,231892,0.58,-0.84,9.96,-0.03,-0.01,-0.00,32.11
16905234,2035,1,200926,231886,0.56,-0.86,9.96,-0.03,-0.01,-0.01,32.11
16945196,2053,1,200940,232089,0.57,-0.83,9.97,-0.03,-0.01,-0.00,32.11
16985196,2021,1,200989,232471,0.58,-0.83,9.96,-0.03,-0.01,-0.00,32.11
17025204,1997,1,201217,232831,0.57,-0.82,9.96,-0.03,-0.01,-0.01,32.11
17065196,1995,1,201321,233043,0.58,-0.84,9.95,-0.03,-0.01,-0.00,32.11
17105197,2005,1,201371,233230,0.56,-0.82,9.97,-0.03,-0.01,-0.00,32.11
17145193,2039,1,201405,233401,0.55,-0.82,9.96,-0.03,-0.01,-0.00,32.11
17185197,2055,1,201508,233647,0.60,-0.82,9.95,-0.03,-0.01,-0.00,32.11
17225194,2047,1,201603,233916,0.57,-0.84,9.96,-0.03,-0.01,-0.00,32.11
17265197,2077,1,201702,234175,0.56,-0.83,9.95,-0.03,-0.01,-0.00,32.11
17305196,2001,1,201783,234380,0.57,-0.83,9.95,-0.03,-0.01,-0.00,32.11
17345883,1991,1,201739,234661,0.57,-0.84,9.96,-0.03,-0.01,-0.00,32.11
17384194,2086,1,201880,235009,0.57,-0.82,9.99,-0.03,-0.01,-0.00,32.11
17424196,2107,1,201990,235278,0.57,-0.82,9.96,-0.03,-0.01,-0.00,32.11
17464194,2112,1,202076,235523,0.57,-0.84,9.95,-0.03,-0.01,-0.00,32.11
17504196,2129,1,202058,234833,0.55,-0.82,9.96,-0.03,-0.01,-0.00,32.11
17544196,2082,1,201677,233419,0.55,-0.85,9.94,-0.03,-0.01,-0.01,32.11
17584196,2061,1,201305,232575,0.58,-0.84,9.97,-0.03,-0.01,-0.00,32.11
17624196,2103,1,201174,232339,0.58,-0.85,9.96,-0.03,-0.01,-0.01,32.11
17664196,2089,1,201179,232435,0.56,-0.84,9.96,-0.03,-0.01,-0.00,32.11
17704196,2035,1,201170,232639,0.58,-0.81,9.97,-0.03,-0.01,-0.00,32.11
17744197,2088,1,201310,233138,0.58,-0.82,9.97,-0.03,-0.01,-0.01,32.11
17784197,2035,1,201450,233406,0.56,-0.85,9.93,-0.03,-0.01,-0.00,32.11
17824196,2124,1,201529,233616,0.58,-0.84,9.96,-0.03,-0.01,-0.00,32.11
17864196,2096,1,201509,233798,0.56,-0.86,9.95,-0.03,-0.01,-0.00,32.11
17904197,2115,1,201651,234086,0.56,-0.82,9.97,-0.03,-0.01,-0.01,32.11
17944196,2103,1,201671,234394,0.59,-0.84,9.98,-0.03,-0.01,-0.00,32.11
17984196,2132,1,201857,234709,0.57,-0.82,9.95,-0.03,-0.01,-0.00,32.11
18024220,2087,1,201901,234950,0.58,-0.83,9.95,-0.03,-0.01,-0.01,32.11
18064196,2057,1,202018,235215,0.57,-0.82,9.94,-0.03,-0.01,-0.00,32.11
18104196,2085,1,202085,235466,0.58,-0.82,9.95,-0.03,-0.01,-0.00,32.11
18144197,2112,1,202173,235674,0.57,-0.82,9.97,-0.03,-0.01,-0.00,32.11
18184196,2096,1,202244,235798,0.56,-0.82,9.95,-0.03,-0.01,-0.00,32.11
18224196,2096,1,202200,234952,0.58,-0.85,9.96,-0.03,-0.01,-0.00,32.11
18264194,2090,1,201580,233592,0.59,-0.83,9.97,-0.03,-0.01,-0.00,32.11
18304196,2022,1,201187,232830,0.57,-0.83,9.93,-0.03,-0.01,-0.00,32.11
18344197,2032,1,201054,232677,0.58,-0.84,9.98,-0.03,-0.01,-0.00,32.11
18384883,1965,1,201130,232628,0.60,-0.84,9.98,-0.03,-0.01,-0.00,32.09
18425193,2007,1,201158,232957,0.58,-0.82,9.96,-0.03,-0.01,-0.00,32.09
18465196,1971,1,201245,233289,0.57,-0.84,9.98,-0.03,-0.01,-0.00,32.09
18505193,1984,1,201304,233347,0.56,-0.83,9.96,-0.03,-0.01,-0.00,32.09
18545234,1982,1,201286,233459,0.58,-0.83,9.96,-0.03,-0.01,-0.00,32.09
18585193,1977,1,201298,233658,0.55,-0.84,9.97,-0.03,-0.01,-0.00,32.09
18625196,2000,1,201408,233962,0.58,-0.83,9.95,-0.03,-0.01,-0.00,32.09
18665193,2039,1,201472,234186,0.58,-0.82,9.96,-0.03,-0.01,-0.00,32.09
18705196,2019,1,201592,234436,0.57,-0.83,9.96,-0.03,-0.01,-0.01,32.09
18745216,2046,1,201610,234707,0.58,-0.84,9.97,-0.03,-0.01,-0.01,32.09
18785197,2006,1,201711,234901,0.57,-0.80,9.96,-0.03,-0.01,-0.00,32.09
18825193,2013,1,201844,235156,0.56,-0.82,9.97,-0.03,-0.01,-0.00,32.09
18865196,2074,1,201877,235330,0.57,-0.84,9.96,-0.03,-0.01,-0.00,32.09
18905193,2032,1,201865,235194,0.58,-0.83,9.94,-0.03,-0.01,-0.00,32.09
18945196,2003,1,201614,233880,0.57,-0.83,9.94,-0.03,-0.01,-0.00,32.09
18985197,1968,1,201104,232709,0.59,-0.83,9.96,-0.03,-0.01,-0.00,32.09
19025203,2011,1,200898,232245,0.58,-0.83,9.98,-0.03,-0.01,-0.00,32.09
19065196,2096,1,200818,232203,0.59,-0.82,9.94,-0.03,-0.01,-0.00,32.09
19105197,2059,1,200856,232297,0.57,-0.84,9.96,-0.03,-0.01,-0.00,32.09
19145197,2057,1,200884,232643,0.57,-0.84,9.94,-0.03,-0.01,-0.00,32.09
19185196,2044,1,201059,232965,0.57,-0.82,9.94,-0.03,-0.01,-0.01,32.09
19225196,2014,1,201155,233080,0.56,-0.82,9.96,-0.03,-0.01,-0.00,32.09
19265196,2055,1,201160,233141,0.55,-0.82,9.95,-0.03,-0.01,-0.00,32.09
19305193,1992,1,201163,233293,0.57,-0.82,9.95,-0.03,-0.01,-0.01,32.09
19345196,2032,1,201302,233470,0.56,-0.84,9.96,-0.03,-0.01,-0.00,32.09
19385880,2015,1,201411,233681,0.58,-0.82,9.94,-0.03,-0.01,-0.01,31.97
19424197,2102,1,201510,233889,0.57,-0.81,9.92,-0.03,-0.01,-0.01,31.97
19464197,2057,1,201580,234184,0.59,-0.83,9.97,-0.03,-0.01,-0.01,31.97
19504196,2096,1,201693,234273,0.57,-0.85,9.95,-0.03,-0.01,-0.00,31.97
19544197,2137,1,201716,234417,0.56,-0.85,9.96,-0.03,-0.01,-0.00,31.97
19584197,2095,1,201815,234728,0.58,-0.84,9.96,-0.03,-0.01,-0.00,31.97
19624196,2098,1,201858,234950,0.57,-0.85,9.96,-0.03,-0.01,-0.01,31.97
19664196,2046,1,201947,234699,0.56,-0.83,9.94,-0.03,-0.01,-0.01,31.97
19704196,2112,1,201589,233083,0.58,-0.84,9.97,-0.03,-0.01,-0.00,31.97
19744196,2053,1,201109,231832,0.58,-0.83,9.94,-0.03,-0.01,-0.00,31.97
19784194,2017,1,200770,231385,0.57,-0.82,9.94,-0.03,-0.01,-0.00,31.97
19824196,2064,1,200780,231306,0.56,-0.82,9.96,-0.03,-0.01,-0.00,31.97
19864196,2085,1,200727,231358,0.58,-0.83,9.94,-0.03,-0.01,-0.00,31.97
19904197,2055,1,200804,231790,0.57,-0.84,9.94,-0.03,-0.01,-0.00,31.97
19944194,2079,1,200941,232176,0.57,-0.84,9.95,-0.03,-0.01,-0.01,31.97
19984200,2067,1,201076,232389,0.58,-0.83,9.96,-0.03,-0.01,-0.00,31.97
20024220,2095,1,201116,232557,0.55,-0.83,9.95,-0.03,-0.01,-0.01,31.97
20064196,2054,1,201196,232795,0.56,-0.83,9.96,-0.03,-0.01,-0.00,31.97
20104196,2070,1,201265,233106,0.57,-0.83,9.95,-0.03,-0.01,-0.00,31.97
20144196,2068,1,201420,233435,0.56,-0.82,9.96,-0.03,-0.01,-0.00,31.97
20184223,2087,1,201427,233719,0.57,-0.83,9.96,-0.03,-0.01,-0.00,31.97
20224197,2042,1,201569,233994,0.57,-0.82,9.97,-0.03,-0.01,-0.00,31.97
20264194,2064,1,201622,234219,0.57,-0.84,9.96,-0.03,-0.01,-0.00,31.97
20304196,2002,1,201718,234480,0.58,-0.83,9.99,-0.03,-0.01,-0.01,31.97
20344197,2023,1,201806,234782,0.57,-0.83,9.96,-0.03,-0.01,-0.00,31.97
20384211,2001,1,201915,235012,0.57,-0.85,9.96,-0.03,-0.01,-0.01,31.97
20424883,2034,1,201743,235018,0.56,-0.83,9.95,-0.03,-0.01,-0.00,31.97
20465196,2032,1,201635,233747,0.59,-0.83,9.96,-0.03,-0.01,-0.00,31.97
20505196,2030,1,201063,232340,0.57,-0.83,9.96,-0.03,-0.01,-0.00,31.97
20545196,1955,1,200818,231890,0.58,-0.84,9.95,-0.03,-0.01,-0.00,31.97
20585196,2013,1,200766,231926,0.58,-0.84,9.97,-0.03,-0.01,-0.00,31.97
20625196,1988,1,200795,232008,0.58,-0.83,9.97,-0.03,-0.01,-0.01,31.97
20665196,1981,1,200834,232260,0.56,-0.84,9.97,-0.03,-0.01,-0.00,31.97
20705196,2000,1,201025,232770,0.57,-0.83,9.96,-0.03,-0.01,-0.00,31.97
20745194,1990,1,201150,233103,0.57,-0.83,9.98,-0.03,-0.01,-0.01,31.97
20785196,1984,1,201263,233350,0.58,-0.85,9.98,-0.03,-0.01,-0.00,31.97
20825194,2006,1,201315,233616,0.57,-0.84,9.94,-0.03,-0.01,-0.00,31.97
20863196,2071,1,201399,233913,0.57,-0.83,9.97,-0.03,-0.01,-0.01,31.97
20903196,2089,1,201475,234184,0.56,-0.82,9.97,-0.03,-0.01,-0.00,31.97
20943196,2107,1,201618,234417,0.57,-0.83,9.98,-0.03,-0.01,-0.00,31.97
20983196,2094,1,201870,234687,0.58,-0.84,9.95,-0.03,-0.01,-0.00,31.97
21024223,2016,1,201975,234897,0.57,-0.83,9.96,-0.03,-0.01,-0.00,31.97
21064197,2011,1,202077,235115,0.59,-0.82,9.97,-0.03,-0.01,-0.00,31.97
21104197,2085,1,202161,235335,0.57,-0.84,9.95,-0.03,-0.01,-0.00,31.97
21144196,2063,1,202232,235689,0.58,-0.83,9.97,-0.03,-0.01,-0.00,31.97
21184197,2069,1,202396,235927,0.56,-0.83,9.96,-0.03,-0.01,-0.00,31.97
21224196,2041,1,202342,234879,0.55,-0.83,9.95,-0.03,-0.01,-0.01,31.97
21264196,2064,1,201763,233312,0.57,-0.83,9.96,-0.03,-0.01,-0.00,31.97
21304197,2014,1,201290,232641,0.57,-0.81,9.97,-0.03,-0.01,-0.00,31.97
21344196,1993,1,201236,232582,0.57,-0.84,9.96,-0.03,-0.01,-0.01,31.97
21384197,2042,1,201254,232747,0.59,-0.83,9.96,-0.03,-0.01,-0.00,31.97
21424196,2061,1,201339,233031,0.57,-0.84,9.96,-0.03,-0.01,-0.00,31.97
21464883,1965,1,201332,233633,0.57,-0.83,9.96,-0.03,-0.01,-0.00,32.11
21503196,2093,1,201424,233854,0.56,-0.82,9.96,-0.03,-0.01,-0.00,32.11
21543196,2047,1,201484,233974,0.57,-0.83,9.97,-0.03,-0.01,-0.00,32.11
21583196,2084,1,201565,234164,0.56,-0.84,9.98,-0.03,-0.01,-0.01,32.11
21623196,2103,1,201598,234348,0.58,-0.83,9.96,-0.03,-0.01,-0.00,32.11
21663196,2064,1,201693,234675,0.57,-0.82,9.94,-0.03,-0.01,-0.00,32.11
21703196,2082,1,201725,234967,0.56,-0.83,9.95,-0.03,-0.01,-0.00,32.11
21743196,2089,1,201852,235114,0.57,-0.82,9.97,-0.03,-0.01,-0.00,32.11
21783197,2099,1,201799,235296,0.58,-0.84,9.96,-0.03,-0.01,-0.00,32.11
21823197,2089,1,201917,235506,0.57,-0.83,9.96,-0.03,-0.01,-0.00,32.11
21863197,2135,1,201968,235693,0.57,-0.82,9.96,-0.03,-0.01,-0.00,32.11
21903196,2106,1,202104,235796,0.57,-0.83,9.95,-0.03,-0.01,-0.01,32.11
21943196,2111,1,201996,234687,0.58,-0.82,9.98,-0.03,-0.01,-0.01,32.11
21983196,2085,1,201443,233019,0.59,-0.83,9.97,-0.03,-0.01,-0.00,32.11
22023206,2097,1,201024,232216,0.56,-0.83,9.99,-0.03,-0.01,-0.00,32.11
22063196,2101,1,200950,232077,0.59,-0.82,9.97,-0.03,-0.01,-0.00,32.11
22103197,2083,1,200933,232035,0.58,-0.83,9.98,-0.03,-0.01,-0.00,32.11
22143196,2046,1,200966,232224,0.56,-0.82,9.96,-0.03,-0.01,-0.00,32.11
22183197,2055,1,201021,232589,0.58,-0.83,9.96,-0.03,-0.01,-0.00,32.11
22223196,2096,1,201133,232724,0.57,-0.86,9.95,-0.03,-0.01,-0.00,32.11
22263196,2112,1,201197,232840,0.59,-0.84,9.95,-0.03,-0.01,-0.01,32.11
22303196,2085,1,201247,232987,0.55,-0.83,9.97,-0.03,-0.01,-0.00,32.11
22343197,2106,1,201320,233295,0.56,-0.83,9.96,-0.03,-0.01,-0.01,32.11
22383196,2083,1,201437,233592,0.57,-0.82,9.94,-0.03,-0.01,-0.00,32.11
22423196,2057,1,201522,233922,0.58,-0.82,9.95,-0.03,-0.01,-0.00,32.11
22463196,2071,1,201686,234111,0.58,-0.85,9.97,-0.03,-0.01,-0.00,32.11
22503883,2003,1,201750,234343,0.55,-0.83,9.95,-0.03,-0.01,-0.00,32.13
22544196,2037,1,201837,234513,0.57,-0.83,9.96,-0.03,-0.01,-0.00,32.13
22584196,2063,1,201953,234714,0.57,-0.85,9.98,-0.03,-0.01,-0.01,32.13
22624196,2022,1,201994,234522,0.56,-0.81,9.96,-0.03,-0.01,-0.01,32.13
22664196,2057,1,201756,233018,0.55,-0.82,9.97,-0.03,-0.01,-0.00,32.13
22704196,2033,1,201184,231600,0.56,-0.84,9.94,-0.03,-0.01,-0.00,32.13
22744196,1979,1,200825,231041,0.57,-0.83,9.94,-0.03,-0.01,-0.00,32.13
22784196,2029,1,200762,230906,0.57,-0.81,9.93,-0.03,-0.01,-0.00,32.13
22824196,2023,1,200673,230976,0.58,-0.82,9.96,-0.03,-0.01,-0.00,32.13
22864196,1980,1,200772,231261,0.58,-0.83,9.95,-0.03,-0.01,-0.01,32.13
22904196,1985,1,200817,231717,0.58,-0.85,9.96,-0.03,-0.01,-0.00,32.13
22944196,1972,1,201012,231924,0.56,-0.83,9.95,-0.03,-0.01,-0.01,32.13
22984196,2022,1,201024,232111,0.57,-0.81,9.97,-0.03,-0.01,-0.01,32.13
23024219,1990,1,201149,232306,0.58,-0.83,9.95,-0.03,-0.01,-0.00,32.13
23064196,2024,1,201140,232546,0.56,-0.83,9.93,-0.03,-0.01,-0.00,32.13
23104196,1985,1,201240,232856,0.56,-0.81,9.95,-0.03,-0.01,-0.01,32.13
23144196,1995,1,201333,233173,0.57,-0.85,9.96,-0.03,-0.01,-0.01,32.13
23184196,2022,1,201460,233389,0.57,-0.81,9.96,-0.03,-0.01,-0.00,32.13
23224196,1989,1,201446,233731,0.55,-0.83,9.96,-0.03,-0.01,-0.00,32.13
23264196,2033,1,201568,234042,0.56,-0.84,9.97,-0.03,-0.01,-0.00,32.13
23304196,2009,1,201691,234298,0.57,-0.84,9.95,-0.03,-0.01,-0.01,32.13
23344196,2000,1,201823,234314,0.61,-0.84,9.96,-0.03,-0.01,-0.00,32.13
23384197,2018,1,201458,232844,0.56,-0.83,9.96,-0.03,-0.01,-0.00,32.13
23424196,2015,1,200963,231252,0.58,-0.85,9.96,-0.03,-0.01,-0.00,32.13
23464202,2047,1,200597,230647,0.58,-0.84,9.93,-0.03,-0.01,-0.01,32.13
23504883,1893,1,200687,230580,0.57,-0.82,9.94,-0.03,-0.01,-0.00,31.97
23543196,1935,1,200683,230635,0.57,-0.83,9.94,-0.03,-0.01,-0.00,31.97
23583196,1898,1,200753,230877,0.57,-0.83,9.94,-0.03,-0.01,-0.00,31.97
23623197,2007,1,200857,231312,0.56,-0.82,9.95,-0.03,-0.01,-0.01,31.97
23663234,1936,1,200999,231544,0.58,-0.83,9.96,-0.03,-0.01,-0.01,31.97
23703196,1977,1,201084,231643,0.57,-0.84,9.94,-0.03,-0.01,-0.00,31.97
23743196,1951,1,201081,231778,0.54,-0.84,9.96,-0.03,-0.01,-0.00,31.97
23783197,1989,1,201176,232077,0.58,-0.82,9.95,-0.03,-0.01,-0.00,31.97
23823196,2019,1,201299,232407,0.58,-0.81,9.96,-0.03,-0.01,-0.00,31.97
23863196,2000,1,201432,232645,0.58,-0.83,9.95,-0.03,-0.01,-0.00,31.97
23903196,1978,1,201522,232900,0.57,-0.83,9.97,-0.03,-0.01,-0.00,31.97
23943197,2058,1,201614,233184,0.58,-0.84,9.95,-0.03,-0.01,-0.00,31.97
23983196,2075,1,201714,233416,0.57,-0.83,9.96,-0.03,-0.01,-0.00,31.97
24023207,2021,1,201782,233653,0.58,-0.82,9.94,-0.03,-0.01,-0.00,31.97
24063196,2016,1,201901,233827,0.56,-0.84,9.95,-0.03,-0.01,-0.00,31.97
24102197,2041,1,201748,233031,0.58,-0.86,9.95,-0.03,-0.01,-0.00,31.97
24142196,2138,1,201279,231209,0.59,-0.83,9.97,-0.03,-0.01,-0.01,31.97
24182196,2083,1,200776,230113,0.55,-0.85,9.96,-0.03,-0.01,-0.00,31.97
24222196,2108,1,200610,229873,0.56,-0.83,9.96,-0.03,-0.01,-0.00,31.97
24262196,2112,1,200586,229912,0.56,-0.83,9.96,-0.03,-0.01,-0.00,31.97
24302196,2146,1,200577,230001,0.57,-0.84,9.94,-0.03,-0.01,-0.00,31.97
24342196,2085,1,200658,230492,0.57,-0.82,9.95,-0.03,-0.01,-0.01,31.97
24382196,2091,1,200811,230874,0.58,-0.84,9.97,-0.03,-0.01,-0.00,31.97
24422197,2127,1,200943,231083,0.57,-0.85,9.97,-0.03,-0.01,-0.01,31.97
24462196,2098,1,200995,231382,0.58,-0.84,9.96,-0.03,-0.01,-0.00,31.97
24502197,2102,1,201083,231664,0.56,-0.84,9.94,-0.03,-0.01,-0.01,31.97
24542883,2035,1,201234,231904,0.58,-0.82,9.96,-0.03,-0.01,-0.00,31.91
24583196,1970,1,201353,232206,0.57,-0.83,9.96,-0.03,-0.01,-0.00,31.91
24623196,2015,1,201448,232500,0.58,-0.83,9.98,-0.03,-0.01,-0.01,31.91
24663196,2026,1,201447,232837,0.57,-0.84,9.95,-0.03,-0.01,-0.00,31.91
24703196,2023,1,201566,233197,0.54,-0.83,9.96,-0.03,-0.01,-0.00,31.91
24743197,1985,1,201678,233583,0.58,-0.83,9.94,-0.03,-0.01,-0.01,31.91
24783197,1985,1,201830,233793,0.57,-0.81,9.98,-0.03,-0.01,-0.00,31.91
24823196,2022,1,201880,233867,0.57,-0.83,9.93,-0.03,-0.01,-0.00,31.91
24863196,1988,1,201756,232717,0.58,-0.82,9.95,-0.03,-0.01,-0.00,31.91
24903197,1998,1,201188,231212,0.57,-0.84,9.97,-0.03,-0.01,-0.00,31.91
24943196,2017,1,200913,230726,0.56,-0.84,9.97,-0.03,-0.01,-0.00,31.91
24983197,2026,1,200812,230653,0.57,-0.83,9.97,-0.03,-0.01,-0.00,31.91
25023207,1989,1,200867,230722,0.57,-0.82,9.96,-0.03,-0.01,-0.00,31.91
25063196,2025,1,200891,230956,0.59,-0.83,9.92,-0.03,-0.01,-0.00,31.91
25102234,2047,1,200970,231478,0.58,-0.84,9.95,-0.03,-0.01,-0.00,31.91
25142196,2039,1,201072,231750,0.57,-0.85,9.95,-0.03,-0.01,-0.00,31.91
25182197,2011,1,201159,231913,0.57,-0.83,9.94,-0.03,-0.01,-0.01,31.91
25222196,2058,1,201249,232178,0.56,-0.84,9.93,-0.03,-0.01,-0.01,31.91
25262196,2047,1,201333,232426,0.56,-0.83,9.96,-0.03,-0.01,-0.00,31.91
25302209,2067,1,201398,232693,0.57,-0.83,9.96,-0.03,-0.01,-0.00,31.91
25342196,2027,1,201530,232987,0.56,-0.84,9.96,-0.03,-0.01,-0.00,31.91
25382196,2014,1,201603,233197,0.58,-0.83,9.94,-0.03,-0.01,-0.00,31.91
25422196,2005,1,201683,233327,0.59,-0.83,9.95,-0.03,-0.01,-0.00,31.91
25462197,2042,1,201786,233570,0.58,-0.84,9.92,-0.03,-0.01,-0.00,31.91
25502196,1989,1,201880,233763,0.59,-0.83,9.96,-0.03,-0.01,-0.00,31.91
25542197,2047,1,201930,233753,0.57,-0.81,9.95,-0.03,-0.01,-0.00,31.91
25582883,2023,1,201765,232431,0.56,-0.83,9.96,-0.03,-0.01,-0.00,32.09
25623196,1998,1,201205,230743,0.57,-0.81,9.96,-0.03,-0.01,-0.01,32.09
25663197,2029,1,200854,230004,0.58,-0.83,9.95,-0.03,-0.01,-0.00,32.09
25703196,2013,1,200661,229829,0.58,-0.82,9.96,-0.03,-0.01,-0.01,32.09
25743197,2000,1,200689,229802,0.58,-0.85,9.95,-0.03,-0.01,-0.00,32.09
25783196,2000,1,200676,230082,0.58,-0.82,9.96,-0.03,-0.01,-0.00,32.09
25823196,1994,1,200782,230440,0.57,-0.84,9.96,-0.03,-0.01,-0.00,32.09
25863196,2005,1,200877,230573,0.57,-0.82,9.97,-0.03,-0.01,-0.00,32.09
25903197,2007,1,200899,230640,0.59,-0.82,9.97,-0.03,-0.01,-0.01,32.09
25943197,2043,1,200856,230895,0.56,-0.82,9.98,-0.03,-0.01,-0.00,32.09
25983197,1998,1,200946,231211,0.57,-0.81,9.97,-0.03,-0.01,-0.00,32.09
26023208,1983,1,201040,231538,0.58,-0.83,9.96,-0.03,-0.01,-0.00,32.09
26063197,1987,1,201210,231863,0.59,-0.82,9.94,-0.03,-0.01,-0.00,32.09
26103196,1982,1,201190,232107,0.56,-0.83,9.98,-0.03,-0.01,-0.01,32.09
26142197,2068,1,201521,232458,0.57,-0.83,9.94,-0.03,-0.01,-0.00,32.09
26182196,2041,1,201604,232824,0.58,-0.84,9.95,-0.03,-0.01,-0.00,32.09
26222197,2079,1,201713,233077,0.57,-0.84,10.00,-0.03,-0.01,-0.00,32.09
26262193,2058,1,201755,233233,0.59,-0.84,9.97,-0.03,-0.01,-0.00,32.09
26302197,2017,1,201635,232068,0.58,-0.83,9.93,-0.03,-0.01,-0.00,32.09
26342196,2011,1,201045,230259,0.56,-0.81,9.94,-0.03,-0.01,-0.00,32.09
26382197,2038,1,200639,229456,0.57,-0.84,9.96,-0.03,-0.01,-0.00,32.09
26422196,2031,1,200498,229534,0.55,-0.84,9.96,-0.03,-0.01,-0.01,32.09
26462196,2002,1,200470,229488,0.57,-0.83,9.97,-0.03,-0.01,-0.00,32.09
26502196,2044,1,200488,229643,0.57,-0.85,9.93,-0.03,-0.01,-0.00,32.09
26542196,2014,1,200619,230069,0.57,-0.83,9.97,-0.03,-0.01,-0.00,32.09
26582196,1980,1,200699,230358,0.56,-0.83,9.97,-0.03,-0.01,-0.00,32.09
26622883,1979,1,200640,230548,0.57,-0.81,9.95,-0.03,-0.01,-0.00,32.13
26663197,1981,1,200706,230789,0.57,-0.83,9.94,-0.03,-0.01,-0.00,32.13
26703196,1983,1,200814,231081,0.56,-0.85,10.00,-0.03,-0.01,-0.00,32.13
26743193,1965,1,200902,231416,0.57,-0.84,9.94,-0.03,-0.01,-0.00,32.13
26783196,1956,1,201057,231765,0.56,-0.81,9.95,-0.03,-0.01,-0.00,32.13
26821196,2103,1,201184,232029,0.59,-0.82,9.95,-0.03,-0.01,-0.00,32.13
26861196,2121,1,201268,232294,0.57,-0.84,9.95,-0.03,-0.01,-0.01,32.13
26901196,2070,1,201334,232593,0.57,-0.81,9.97,-0.03,-0.01,-0.00,32.13
26941213,2096,1,201414,232824,0.55,-0.84,9.96,-0.03,-0.01,-0.00,32.13
26981196,2045,1,201564,233179,0.58,-0.82,9.96,-0.03,-0.01,-0.00,32.13
27021207,2047,1,201648,233401,0.56,-0.82,9.95,-0.03,-0.01,-0.00,32.13
27061196,2127,1,201658,232773,0.56,-0.83,9.98,-0.03,-0.01,-0.01,32.13
27101196,2147,1,201237,230856,0.57,-0.84,9.95,-0.03,-0.01,-0.00,32.13
27141208,2017,1,200749,229741,0.56,-0.82,9.96,-0.03,-0.01,-0.01,32.13
27182196,2034,1,200633,229369,0.57,-0.81,9.96,-0.03,-0.01,-0.01,32.13
27222196,2063,1,200571,229408,0.58,-0.84,9.96,-0.03,-0.01,-0.01,32.13
27262196,2026,1,200524,229560,0.57,-0.82,9.94,-0.03,-0.01,-0.00,32.13
27302196,2017,1,200621,229987,0.58,-0.83,9.96,-0.03,-0.01,-0.00,32.13
27342196,1984,1,200805,230446,0.58,-0.83,9.96,-0.03,-0.01,-0.00,32.13
27382196,2005,1,200919,230765,0.56,-0.83,9.95,-0.03,-0.01,-0.00,32.13
27422196,1967,1,200981,230996,0.56,-0.84,9.98,-0.03,-0.01,-0.01,32.13
27462196,2032,1,201040,231296,0.58,-0.84,9.95,-0.03,-0.01,-0.01,32.13
27502196,1986,1,201114,231659,0.57,-0.83,9.98,-0.03,-0.01,-0.01,32.13
27542196,2013,1,201241,232053,0.57,-0.84,9.96,-0.03,-0.01,-0.01,32.13
27582196,2003,1,201402,232370,0.58,-0.82,9.94,-0.03,-0.01,-0.00,32.13
27622883,1977,1,201434,232742,0.56,-0.85,9.96,-0.03,-0.01,-0.01,31.95
27661196,2075,1,201556,233051,0.57,-0.82,9.96,-0.03,-0.01,-0.00,31.95
27701196,2111,1,201594,233387,0.58,-0.82,9.93,-0.03,-0.01,-0.00,31.95
27741196,2096,1,201677,233710,0.57,-0.83,9.97,-0.03,-0.01,-0.00,31.95
27781197,2071,1,201750,234054,0.57,-0.82,9.96,-0.03,-0.01,-0.00,31.95
27821196,2101,1,201809,233328,0.57,-0.84,9.98,-0.03,-0.01,-0.00,31.95
27861197,2107,1,201227,231827,0.58,-0.82,9.97,-0.03,-0.01,-0.00,31.95
27901196,2061,1,200817,231131,0.58,-0.81,9.96,-0.03,-0.01,-0.01,31.95
27941196,2066,1,200778,230999,0.56,-0.82,9.98,-0.03,-0.01,-0.00,31.95
27981196,2063,1,200768,231083,0.56,-0.83,9.98,-0.03,-0.01,-0.00,31.95
28021208,2082,1,200807,231282,0.56,-0.84,10.01,-0.03,-0.01,-0.00,31.95
28061196,2079,1,200979,231744,0.55,-0.83,9.97,-0.03,-0.01,-0.00,31.95
28101197,2067,1,201094,231960,0.57,-0.84,9.97,-0.03,-0.01,-0.00,31.95
28141196,1993,1,201144,232045,0.57,-0.84,9.94,-0.03,-0.01,-0.00,31.95
28181196,2057,1,201183,232168,0.58,-0.84,9.97,-0.03,-0.01,-0.00,31.95
28221196,2001,1,201226,232398,0.57,-0.82,9.95,-0.03,-0.01,-0.00,31.95
28261196,2064,1,201302,232614,0.57,-0.83,9.96,-0.03,-0.01,-0.00,31.95
28301196,2064,1,201397,232823,0.58,-0.82,9.98,-0.03,-0.01,-0.00,31.95
28341196,2029,1,201478,233059,0.56,-0.85,9.95,-0.03,-0.01,-0.00,31.95
28381196,2047,1,201572,233235,0.58,-0.82,9.96,-0.03,-0.01,-0.00,31.95
28421197,2078,1,201657,233436,0.56,-0.82,9.95,-0.03,-0.01,-0.01,31.95
28461196,2087,1,201775,233508,0.58,-0.85,9.97,-0.03,-0.01,-0.00,31.95
28501197,2078,1,201773,233611,0.59,-0.83,9.94,-0.03,-0.01,-0.01,31.95
28541196,2034,1,201720,232579,0.56,-0.84,9.96,-0.03,-0.01,-0.00,31.95
28581207,1981,1,201246,231146,0.57,-0.86,9.97,-0.03,-0.01,-0.00,31.95
28621196,2005,1,200838,230351,0.56,-0.85,9.98,-0.03,-0.01,-0.00,31.95
28661883,1979,1,200621,230109,0.58,-0.82,9.96,-0.03,-0.01,-0.00,31.97
28702196,2026,1,200552,230042,0.57,-0.82,9.95,-0.03,-0.01,-0.00,31.97
28742196,2039,1,200572,230132,0.58,-0.83,9.94,-0.03,-0.01,-0.00,31.97
28782204,2010,1,200582,230530,0.58,-0.81,9.98,-0.03,-0.01,-0.01,31.97
28822196,1930,1,200666,230755,0.57,-0.82,9.96,-0.03,-0.01,-0.00,31.97
28862196,1980,1,200724,230825,0.57,-0.83,9.94,-0.03,-0.01,-0.00,31.97
28902196,1989,1,200724,231003,0.57,-0.83,9.97,-0.03,-0.01,-0.00,31.97
28942196,2079,1,200771,231168,0.58,-0.84,9.96,-0.03,-0.01,-0.00,31.97
28982196,2033,1,200822,231434,0.58,-0.82,9.95,-0.03,-0.01,-0.01,31.97
29022196,2018,1,200963,231765,0.57,-0.81,9.95,-0.03,-0.01,-0.00,31.97
29062197,2034,1,201018,232071,0.55,-0.84,9.97,-0.03,-0.01,-0.00,31.97
29102196,2025,1,201118,232287,0.56,-0.83,9.97,-0.03,-0.01,-0.00,31.97
29142196,2027,1,200984,232565,0.58,-0.83,9.95,-0.03,-0.01,-0.00,31.97
29182196,2014,1,201140,232811,0.57,-0.83,9.95,-0.03,-0.01,-0.00,31.97
29222196,2023,1,201226,233081,0.57,-0.83,9.94,-0.03,-0.01,-0.00,31.97
29262196,2000,1,201365,233297,0.58,-0.82,9.94,-0.03,-0.01,-0.00,31.97
29302196,2026,1,201282,232270,0.57,-0.80,9.96,-0.03,-0.01,-0.00,31.97
29342196,1999,1,200778,230774,0.57,-0.82,9.97,-0.03,-0.01,-0.00,31.97
29382196,1994,1,200429,230006,0.57,-0.83,9.95,-0.03,-0.01,-0.00,31.97
29422196,1966,1,200311,229745,0.58,-0.84,9.97,-0.03,-0.01,-0.00,31.97
29462197,1958,1,200200,229730,0.56,-0.82,9.97,-0.03,-0.01,-0.00,31.97
29502196,2002,1,200220,229825,0.57,-0.85,9.97,-0.03,-0.01,-0.00,31.97
29542196,2005,1,200334,230200,0.56,-0.84,9.96,-0.03,-0.01,-0.01,31.97
29582196,1984,1,200490,230526,0.57,-0.82,9.95,-0.03,-0.01,-0.01,31.97
29622196,2019,1,200552,230773,0.57,-0.84,9.95,-0.03,-0.01,-0.01,31.97
29662883,1947,1,200726,231046,0.57,-0.82,9.96,-0.03,-0.01,-0.00,31.91
29701197,2043,1,200883,231375,0.56,-0.83,9.96,-0.03,-0.01,-0.00,31.91
29741196,2034,1,200996,231654,0.55,-0.83,9.94,-0.03,-0.01,-0.00,31.91
29781196,2013,1,201034,232039,0.57,-0.83,9.96,-0.03,-0.01,-0.00,31.91
29821196,2035,1,201222,232382,0.57,-0.83,9.95,-0.03,-0.01,-0.01,31.91
29861197,2020,1,201321,232584,0.58,-0.83,9.95,-0.03,-0.01,-0.00,31.91
29901196,2006,1,201426,232813,0.57,-0.84,9.96,-0.03,-0.01,-0.00,31.91
29941196,1928,1,201510,233135,0.57,-0.83,9.96,-0.03,-0.01,-0.01,31.91
29981196,2054,1,201682,233447,0.57,-0.84,9.97,-0.03,-0.01,-0.00,31.91
30021208,1985,1,201764,233665,0.57,-0.82,9.95,-0.03,-0.01,-0.00,31.91
30061197,2043,1,201738,232682,0.56,-0.81,9.95,-0.03,-0.01,-0.00,31.91
30101196,2034,1,201182,231311,0.58,-0.82,9.96,-0.03,-0.01,-0.01,31.91
30141196,2000,1,200823,230605,0.56,-0.82,9.97,-0.03,-0.01,-0.00,31.91
30181196,1950,1,200667,230364,0.58,-0.84,9.98,-0.03,-0.01,-0.00,31.91
30221228,2000,1,200672,230425,0.58,-0.83,9.96,-0.03,-0.01,-0.00,31.91
30261197,2020,1,200617,230620,0.58,-0.84,9.96,-0.03,-0.01,-0.00,31.91
30301196,1982,1,200753,231103,0.57,-0.84,9.95,-0.03,-0.01,-0.00,31.91
30341197,2007,1,200906,231448,0.59,-0.84,9.96,-0.03,-0.01,-0.00,31.91
30381197,2033,1,200998,231623,0.57,-0.84,9.97,-0.03,-0.01,-0.00,31.91
30421225,2061,1,201004,231881,0.58,-0.83,9.96,-0.03,-0.01,-0.01,31.91
30461196,2032,1,201114,232143,0.57,-0.84,9.96,-0.03,-0.01,-0.00,31.91
30501196,2010,1,201224,232494,0.59,-0.82,9.96,-0.03,-0.01,-0.00,31.91
30541196,2041,1,201375,232868,0.60,-0.83,9.95,-0.03,-0.01,-0.00,31.91
30581193,2032,1,201487,233317,0.57,-0.84,9.95,-0.03,-0.01,-0.00,31.91
30621196,2014,1,201570,233613,0.57,-0.81,9.94,-0.03,-0.01,-0.01,31.91
30661196,2032,1,201686,234043,0.56,-0.84,9.96,-0.03,-0.01,-0.00,31.91
30701883,1984,1,201752,234518,0.58,-0.83,9.97,-0.03,-0.01,-0.00,31.89
30740197,2092,1,201894,234914,0.57,-0.83,9.96,-0.03,-0.01,-0.00,31.89
30780196,2077,1,201972,235280,0.56,-0.82,9.97,-0.03,-0.01,-0.00,31.89
30820196,2055,1,201960,234059,0.57,-0.81,9.92,-0.03,-0.01,-0.00,31.89
30860197,2081,1,201434,232755,0.57,-0.84,9.95,-0.03,-0.01,-0.01,31.89
30900197,2089,1,201120,232359,0.57,-0.85,9.95,-0.03,-0.01,-0.00,31.89
30940196,2090,1,201143,232330,0.58,-0.82,9.95,-0.03,-0.01,-0.00,31.89
30980197,2065,1,201164,232424,0.57,-0.84,9.97,-0.03,-0.01,-0.00,31.89
31020196,2107,1,201203,232685,0.59,-0.84,9.97,-0.03,-0.01,-0.00,31.89
31060197,2105,1,201298,233056,0.56,-0.82,9.96,-0.03,-0.01,-0.00,31.89
31100196,2019,1,201421,233218,0.59,-0.85,9.93,-0.03,-0.01,-0.00,31.89
31140196,2013,1,201454,233274,0.57,-0.82,9.96,-0.03,-0.01,-0.00,31.89
31180196,2011,1,201501,233376,0.57,-0.84,9.96,-0.03,-0.01,-0.01,31.89
31220197,1975,1,201541,233597,0.56,-0.85,9.95,-0.03,-0.01,-0.00,31.89
31260196,2016,1,201664,233747,0.57,-0.81,9.95,-0.03,-0.01,-0.00,31.89
31300196,2039,1,201767,233947,0.57,-0.83,9.95,-0.03,-0.01,-0.00,31.89
31340196,2027,1,201844,234027,0.55,-0.82,9.96,-0.03,-0.01,-0.00,31.89
31380197,2032,1,201867,234217,0.57,-0.83,9.95,-0.03,-0.01,-0.01,31.89
31420196,2083,1,201944,234410,0.57,-0.83,9.97,-0.03,-0.01,-0.00,31.89
31460197,2059,1,201999,234415,0.56,-0.83,9.97,-0.03,-0.01,-0.00,31.89
31500196,2041,1,202061,234295,0.56,-0.84,9.96,-0.03,-0.01,-0.01,31.89
31540196,2036,1,201866,233052,0.59,-0.85,9.97,-0.03,-0.01,-0.00,31.89
31580196,2064,1,201317,231582,0.56,-0.82,9.94,-0.03,-0.01,-0.00,31.89
31620196,2080,1,200992,230771,0.57,-0.85,9.94,-0.03,-0.01,-0.00,31.89
31660196,2047,1,200753,230477,0.57,-0.84,9.97,-0.03,-0.01,-0.00,31.89
31700196,2042,1,200722,230442,0.60,-0.83,9.93,-0.03,-0.01,-0.00,31.89
31740883,1952,1,200627,230634,0.57,-0.82,9.96,-0.03,-0.01,-0.01,31.89
31781196,1995,1,200725,231030,0.57,-0.83,9.96,-0.03,-0.01,-0.00,31.89
31821196,1978,1,200858,231190,0.57,-0.81,9.95,-0.03,-0.01,-0.00,31.89
31861202,1990,1,200808,231355,0.57,-0.83,9.97,-0.03,-0.01,-0.01,31.89
31901197,1994,1,200888,231558,0.57,-0.84,9.94,-0.03,-0.01,-0.01,31.89
31941196,1933,1,200880,231882,0.56,-0.84,9.96,-0.03,-0.01,-0.00,31.89
31981196,1985,1,201036,232071,0.57,-0.82,9.96,-0.03,-0.01,-0.01,31.89
32021207,1987,1,200755,232265,0.56,-0.85,9.94,-0.04,-0.02,-0.01,31.89
32061232,1920,1,199481,232362,0.57,-0.85,9.96,-0.04,-0.01,-0.00,31.89
32101196,1642,1,199535,232487,0.59,-0.84,9.98,-0.03,-0.02,-0.00,31.89
32141197,1485,1,199051,232588,0.58,-0.82,9.96,-0.04,-0.01,-0.00,31.89
32181196,1402,1,199463,232909,0.59,-0.84,9.93,-0.04,-0.02,-0.00,31.89
32221196,1491,1,199556,233154,0.58,-0.83,9.97,-0.04,-0.02,-0.00,31.89
32261207,1794,1,202012,232476,0.61,-0.85,9.94,-0.04,-0.02,-0.00,31.89
32301196,2354,1,201911,230727,0.60,-0.85,9.96,-0.03,-0.01,-0.00,31.89
32341193,2754,1,201042,229534,0.60,-0.87,9.95,-0.03,-0.01,-0.01,31.89
32381197,2683,1,201038,229210,0.60,-0.84,9.98,-0.03,-0.01,-0.00,31.89
32421194,2757,1,200921,229167,0.58,-0.83,9.96,-0.03,-0.01,-0.00,31.89
32461196,2739,1,200940,229136,0.58,-0.85,9.96,-0.03,-0.01,-0.01,31.89
32501196,2656,1,201066,229383,0.58,-0.86,9.98,-0.03,-0.01,-0.00,31.89
32541196,2619,1,201251,229714,0.58,-0.83,9.97,-0.03,-0.01,-0.00,31.89
32579197,2647,1,201348,229931,0.59,-0.84,9.96,-0.03,-0.01,-0.00,31.89
32619196,2585,1,201400,230035,0.57,-0.85,9.96,-0.03,-0.01,-0.00,31.89
32659197,2508,1,201484,230248,0.58,-0.82,9.95,-0.03,-0.01,-0.00,31.89
32699196,2435,1,201620,230325,0.58,-0.83,9.97,-0.03,-0.01,-0.01,31.89
32739196,2310,1,201629,230507,0.58,-0.83,9.97,-0.03,-0.01,-0.00,31.89
32779882,2176,1,201722,230596,0.59,-0.82,9.96,-0.03,-0.01,-0.00,31.57
32820196,2032,1,201845,230759,0.58,-0.82,9.96,-0.03,-0.01,-0.00,31.57
32860196,1998,1,201891,230870,0.59,-0.85,9.96,-0.03,-0.01,-0.00,31.57
32900196,1872,1,201980,231086,0.58,-0.84,9.97,-0.03,-0.01,-0.00,31.57
32940196,1819,1,202075,231265,0.59,-0.85,9.96,-0.03,-0.01,-0.00,31.57
32980196,1747,1,202080,231474,0.59,-0.85,9.96,-0.04,-0.01,-0.01,31.57
33020196,1672,1,202072,230511,0.59,-0.83,9.96,-0.03,-0.01,-0.00,31.57
33060196,1635,1,201419,228721,0.61,-0.83,9.94,-0.03,-0.01,-0.00,31.57
33099196,1642,1,200852,227842,0.58,-0.85,9.95,-0.03,-0.01,-0.00,31.57
33139196,1493,1,200607,227953,0.58,-0.85,9.95,-0.03,-0.01,-0.00,31.57
33179197,1425,1,200664,228222,0.62,-0.83,9.97,-0.03,-0.01,-0.00,31.57
33219196,1408,1,200715,228579,0.60,-0.85,9.96,-0.03,-0.01,-0.01,31.57
33259196,1359,1,200860,229193,0.60,-0.85,9.95,-0.03,-0.01,-0.00,31.57
33299193,1379,1,201041,229692,0.58,-0.84,9.94,-0.03,-0.01,-0.00,31.57
33339196,1468,1,201234,230054,0.60,-0.84,9.95,-0.03,-0.01,-0.00,31.57
33379193,1517,1,201413,230422,0.60,-0.85,9.93,-0.03,-0.01,-0.01,31.57
33419196,1642,1,201502,230792,0.60,-0.85,9.96,-0.03,-0.01,-0.00,31.57
33459193,1767,1,201637,231267,0.61,-0.83,9.96,-0.03,-0.01,-0.01,31.57
33499202,1832,1,201764,231751,0.60,-0.85,9.96,-0.03,-0.01,-0.01,31.57
33539193,1872,1,202001,232153,0.59,-0.86,9.95,-0.03,-0.01,-0.00,31.57
33579196,1968,1,202106,232530,0.60,-0.85,9.98,-0.03,-0.01,-0.00,31.57
33619193,2033,1,202222,232893,0.60,-0.84,9.95,-0.03,-0.01,-0.00,31.57
33659197,1993,1,202369,233310,0.60,-0.86,9.96,-0.03,-0.01,-0.01,31.57
33699201,2039,1,202517,233597,0.59,-0.85,9.97,-0.03,-0.01,-0.00,31.57
33739196,2095,1,202650,233933,0.57,-0.85,9.97,-0.03,-0.01,-0.00,31.57
33779883,2086,1,202752,233313,0.59,-0.84,9.93,-0.03,-0.01,-0.00,31.19
33820196,2096,1,202294,231662,0.60,-0.85,9.97,-0.03,-0.01,-0.00,31.19
33860194,2117,1,201877,230830,0.59,-0.84,9.96,-0.03,-0.01,-0.00,31.19
33900216,2114,1,201783,230748,0.59,-0.85,9.94,-0.03,-0.01,-0.00,31.19
33940196,2125,1,201765,230919,0.60,-0.85,9.98,-0.03,-0.01,-0.00,31.19
33980197,2047,1,201866,231194,0.57,-0.82,9.94,-0.04,-0.01,-0.00,31.19
34020196,2109,1,202018,231670,0.56,-0.83,10.00,-0.04,-0.02,-0.01,31.19
34060197,2115,1,202176,231953,0.61,-0.86,9.95,-0.03,-0.01,-0.01,31.19
34100196,2066,1,202229,232100,0.58,-0.84,9.94,-0.03,-0.01,-0.00,31.19
34139196,2147,1,202292,232267,0.59,-0.85,9.99,-0.03,-0.01,-0.00,31.19
34179196,2153,1,202393,232506,0.58,-0.86,9.97,-0.03,-0.01,-0.00,31.19
34219196,2159,1,202475,232779,0.58,-0.83,9.96,-0.03,-0.01,-0.00,31.19
34259196,2119,1,202565,233033,0.59,-0.85,9.99,-0.03,-0.01,-0.00,31.19
34299196,2066,1,202690,233157,0.61,-0.84,9.95,-0.03,-0.01,-0.00,31.19
34339196,2103,1,202763,233338,0.61,-0.83,9.97,-0.03,-0.01,-0.01,31.19
34379196,2093,1,202800,233437,0.60,-0.85,9.99,-0.03,-0.01,-0.00,31.19
34419193,2025,1,202857,233681,0.59,-0.85,9.96,-0.03,-0.01,-0.00,31.19
34459196,2028,1,202963,233780,0.59,-0.85,9.98,-0.03,-0.01,-0.01,31.19
34499196,2033,1,202928,232974,0.57,-0.85,9.95,-0.03,-0.01,-0.00,31.19
34539196,1983,1,202423,231183,0.57,-0.85,9.98,-0.03,-0.01,-0.00,31.19
34579196,2009,1,202024,230222,0.59,-0.84,9.95,-0.03,-0.01,-0.00,31.19
34619196,1985,1,201876,230014,0.59,-0.84,9.96,-0.03,-0.01,-0.00,31.19
34659196,1985,1,201784,230038,0.58,-0.84,9.94,-0.03,-0.01,-0.01,31.19
34699196,1969,1,201825,230014,0.60,-0.83,9.97,-0.03,-0.01,-0.01,31.19
34739193,1938,1,201840,230272,0.59,-0.83,9.94,-0.03,-0.01,-0.00,31.19
34779196,1952,1,201903,230372,0.59,-0.84,9.95,-0.03,-0.01,-0.01,31.19
34819883,1935,1,201858,230435,0.58,-0.84,9.95,-0.03,-0.01,-0.00,30.99
34860196,1924,1,201924,230563,0.60,-0.85,9.96,-0.03,-0.01,-0.00,30.99
34900193,1936,1,201899,230719,0.57,-0.85,9.96,-0.03,-0.01,-0.00,30.99
34940196,1861,1,202039,231068,0.59,-0.85,9.96,-0.03,-0.01,-0.00,30.99
34980197,1958,1,202031,231327,0.59,-0.85,9.95,-0.03,-0.01,-0.00,30.99
35020196,1898,1,202120,231576,0.58,-0.84,9.96,-0.03,-0.01,-0.00,30.99
35060197,1907,1,202181,231749,0.57,-0.83,9.96,-0.03,-0.01,-0.00,30.99
35100196,1920,1,202277,231916,0.58,-0.85,9.95,-0.03,-0.01,-0.00,30.99
35139199,1974,1,202374,232111,0.59,-0.85,9.94,-0.03,-0.01,-0.00,30.99
35179196,1947,1,202469,232462,0.57,-0.82,9.97,-0.03,-0.01,-0.00,30.99
35219197,1968,1,202498,231842,0.59,-0.85,9.95,-0.03,-0.01,-0.00,30.99
35259196,1968,1,202005,229915,0.57,-0.85,9.97,-0.03,-0.01,-0.00,30.99
35299197,1983,1,201482,228698,0.59,-0.84,9.96,-0.03,-0.01,-0.00,30.99
35339221,1953,1,201256,228340,0.57,-0.86,9.96,-0.03,-0.01,-0.00,30.99
35379197,2000,1,201176,228459,0.60,-0.83,9.93,-0.03,-0.01,-0.00,30.99
35419196,1986,1,201216,228624,0.57,-0.85,9.96,-0.03,-0.01,-0.00,30.99
35459196,2006,1,201338,229045,0.59,-0.83,9.96,-0.03,-0.01,-0.00,30.99
35499196,1984,1,201445,229457,0.57,-0.84,9.96,-0.03,-0.01,-0.00,30.99
35539211,1985,1,201522,229741,0.60,-0.85,9.93,-0.03,-0.01,-0.00,30.99
35579196,1961,1,201634,229815,0.57,-0.86,9.95,-0.03,-0.01,-0.00,30.99
35619197,1917,1,201705,230116,0.59,-0.85,9.98,-0.03,-0.01,-0.00,30.99
35659196,1936,1,201804,230482,0.59,-0.85,9.95,-0.03,-0.01,-0.00,30.99
35699196,1977,1,201953,230862,0.58,-0.84,9.93,-0.03,-0.01,-0.01,30.99
35739196,2001,1,202055,231250,0.58,-0.84,9.96,-0.03,-0.01,-0.01,30.99
35779196,1968,1,202186,231501,0.58,-0.86,9.99,-0.03,-0.01,-0.00,30.99
35819883,1951,1,202273,231670,0.57,-0.85,9.94,-0.03,-0.01,-0.00,31.07
35858196,1995,1,202346,231712,0.58,-0.85,9.93,-0.03,-0.01,-0.01,31.07
35898196,2047,1,202355,231970,0.59,-0.85,9.95,-0.03,-0.01,-0.01,31.07
35938197,2023,1,202445,232302,0.58,-0.86,9.94,-0.03,-0.01,-0.00,31.07
35978196,2018,1,202503,231856,0.58,-0.85,9.96,-0.03,-0.01,-0.00,31.07
36018196,2026,1,202118,229981,0.58,-0.84,9.94,-0.03,-0.01,-0.00,31.07
36058196,2037,1,201581,228648,0.60,-0.83,9.95,-0.03,-0.01,-0.00,31.07
36098193,2027,1,201364,228504,0.59,-0.84,9.97,-0.03,-0.01,-0.00,31.07
36138196,2015,1,201376,228549,0.59,-0.83,9.96,-0.03,-0.01,-0.00,31.07
36179196,1990,1,201398,228693,0.59,-0.83,9.94,-0.03,-0.01,-0.00,31.07
36219196,2000,1,201513,229150,0.58,-0.84,9.97,-0.03,-0.01,-0.00,31.07
36259196,1991,1,201647,229668,0.59,-0.84,9.95,-0.03,-0.01,-0.00,31.07
36299197,1957,1,201846,229938,0.56,-0.83,9.96,-0.03,-0.01,-0.01,31.07
36339196,1954,1,201855,230204,0.58,-0.85,9.97,-0.03,-0.01,-0.00,31.07
36379196,1955,1,201915,230499,0.57,-0.85,9.98,-0.03,-0.01,-0.00,31.07
36419196,1979,1,202052,230875,0.62,-0.85,9.94,-0.03,-0.01,-0.00,31.07
36459196,1977,1,202205,231321,0.60,-0.85,9.96,-0.03,-0.01,-0.00,31.07
36499193,1995,1,202300,231607,0.58,-0.84,9.95,-0.03,-0.01,-0.00,31.07
36539197,1951,1,202449,232041,0.60,-0.84,9.96,-0.03,-0.01,-0.00,31.07
36579193,2007,1,202589,232435,0.58,-0.85,9.97,-0.03,-0.01,-0.00,31.07
36619197,1969,1,202666,232769,0.58,-0.85,9.96,-0.03,-0.01,-0.00,31.07
36659196,1914,1,202787,233236,0.58,-0.85,9.97,-0.03,-0.01,-0.00,31.07
36699196,1920,1,202928,233637,0.59,-0.86,9.98,-0.03,-0.01,-0.01,31.07
36739196,1997,1,203038,233920,0.59,-0.84,9.95,-0.03,-0.01,-0.01,31.07
36779197,2001,1,203155,234073,0.58,-0.84,9.97,-0.03,-0.01,-0.01,31.07
36819883,1939,1,202911,232630,0.59,-0.85,9.95,-0.03,-0.01,-0.00,31.01
36858196,2000,1,202276,231086,0.59,-0.86,9.94,-0.03,-0.01,-0.01,31.01
36898197,1973,1,202047,230598,0.59,-0.84,9.96,-0.03,-0.01,-0.00,31.01
36938196,2038,1,201985,230670,0.58,-0.85,9.95,-0.03,-0.01,-0.00,31.01
36978212,2009,1,201992,230825,0.58,-0.86,9.95,-0.03,-0.01,-0.01,31.01
37018196,2006,1,202045,231363,0.59,-0.86,9.96,-0.03,-0.01,-0.00,31.01
37058196,1967,1,202303,231960,0.59,-0.84,9.94,-0.03,-0.01,-0.00,31.01
37098197,2032,1,202488,232292,0.58,-0.85,9.97,-0.03,-0.01,-0.00,31.01
37138196,2000,1,202537,232409,0.60,-0.83,9.96,-0.03,-0.01,-0.00,31.01
37178196,2033,1,202602,232550,0.58,-0.83,9.93,-0.03,-0.01,-0.00,31.01
37218196,2035,1,202685,232845,0.59,-0.84,9.98,-0.03,-0.01,-0.00,31.01
37258196,2064,1,202791,233089,0.57,-0.86,9.96,-0.03,-0.01,-0.00,31.01
37298196,2011,1,202902,233436,0.58,-0.85,9.97,-0.03,-0.01,-0.00,31.01
37338197,2027,1,203034,233813,0.59,-0.83,9.97,-0.03,-0.01,-0.00,31.01
37378196,2073,1,203175,234181,0.58,-0.84,9.97,-0.03,-0.01,-0.00,31.01
37418197,2032,1,203298,234422,0.60,-0.85,9.95,-0.03,-0.01,-0.00,31.01
37458193,1968,1,203432,234834,0.58,-0.85,9.96,-0.03,-0.01,-0.00,31.01
37498197,2064,1,203634,235183,0.59,-0.86,9.97,-0.03,-0.01,-0.00,31.01
37538196,1991,1,203669,234700,0.58,-0.85,9.94,-0.03,-0.01,-0.00,31.01
37578196,1959,1,203230,232914,0.60,-0.84,9.97,-0.03,-0.01,-0.01,31.01
37618193,1979,1,202752,231919,0.60,-0.84,9.94,-0.03,-0.01,-0.00,31.01
37658196,1991,1,202649,231601,0.58,-0.85,9.97,-0.03,-0.01,-0.00,31.01
37698196,1954,1,202565,231564,0.57,-0.85,9.96,-0.03,-0.01,-0.00,31.01
37738197,1987,1,202545,231673,0.59,-0.82,9.97,-0.03,-0.01,-0.00,31.01
37778196,1995,1,202632,232160,0.58,-0.85,9.97,-0.03,-0.01,-0.01,31.01
37818196,1975,1,202727,232314,0.58,-0.84,9.94,-0.03,-0.01,-0.00,31.01
37858883,1951,1,202712,232431,0.58,-0.85,9.96,-0.03,-0.01,-0.00,31.01
37899196,1968,1,202791,232659,0.62,-0.84,9.98,-0.03,-0.01,-0.00,31.01
37939196,1930,1,202875,232856,0.58,-0.83,9.95,-0.03,-0.01,-0.00,31.01
37979196,1950,1,202965,233220,0.59,-0.85,9.98,-0.03,-0.01,-0.00,31.01
38019196,1947,1,203054,233483,0.60,-0.83,9.97,-0.03,-0.01,-0.00,31.01
38059196,1975,1,203150,233674,0.57,-0.85,9.95,-0.03,-0.01,-0.00,31.01
38099196,1927,1,203139,234003,0.59,-0.85,9.96,-0.03,-0.01,-0.00,31.01
38139196,1990,1,203217,234247,0.59,-0.84,9.94,-0.03,-0.01,-0.01,31.01
38179197,2000,1,203327,234562,0.58,-0.84,9.96,-0.03,-0.01,-0.01,31.01
38219196,1927,1,203453,234807,0.59,-0.84,9.95,-0.03,-0.01,-0.00,31.01
38259196,1963,1,203490,234927,0.59,-0.83,9.95,-0.03,-0.01,-0.00,31.01
38299196,1999,1,203461,234017,0.58,-0.84,9.99,-0.03,-0.01,-0.00,31.01
38339196,1972,1,202885,232111,0.56,-0.85,9.96,-0.03,-0.01,-0.00,31.01
38379196,2007,1,202384,231011,0.59,-0.84,9.95,-0.03,-0.01,-0.00,31.01
38419197,1966,1,202214,230721,0.58,-0.85,9.95,-0.03,-0.01,-0.00,31.01
38459196,1936,1,202138,230671,0.58,-0.84,9.97,-0.03,-0.01,-0.00,31.01
38499196,1965,1,202157,230758,0.59,-0.84,9.96,-0.03,-0.01,-0.00,31.01
38539196,1949,1,202242,231148,0.60,-0.84,9.96,-0.03,-0.01,-0.00,31.01
38579193,1947,1,202345,231538,0.59,-0.83,9.97,-0.03,-0.01,-0.00,31.01
38619203,1952,1,202403,231722,0.59,-0.81,9.96,-0.03,-0.01,-0.00,31.01
38659196,1927,1,202451,231898,0.59,-0.85,9.96,-0.03,-0.01,-0.00,31.01
38699196,1940,1,202542,232107,0.59,-0.84,9.96,-0.03,-0.01,-0.00,31.01
38739196,1977,1,202614,232437,0.60,-0.83,9.98,-0.03,-0.01,-0.00,31.01
38777196,2025,1,202758,232758,0.60,-0.82,9.94,-0.03,-0.01,-0.00,31.01
38817197,2002,1,202833,232980,0.59,-0.85,9.95,-0.03,-0.01,-0.00,31.01
38857197,1994,1,202913,233181,0.60,-0.84,9.96,-0.03,-0.01,-0.00,31.01
38897880,1954,1,203055,233476,0.57,-0.84,9.95,-0.03,-0.01,-0.00,30.99
38938196,1911,1,203157,233711,0.58,-0.83,9.96,-0.03,-0.01,-0.00,30.99
38978196,1971,1,203271,234005,0.60,-0.85,9.95,-0.03,-0.01,-0.00,30.99
39018196,1977,1,203421,234327,0.58,-0.84,9.96,-0.03,-0.01,-0.00,30.99
39058197,1966,1,203520,234535,0.56,-0.84,9.96,-0.03,-0.01,-0.00,30.99
39098196,1979,1,203503,233720,0.59,-0.84,9.96,-0.03,-0.01,-0.00,30.99
39138196,1961,1,202967,231774,0.58,-0.85,9.97,-0.03,-0.01,-0.00,30.99
39178196,1987,1,202429,230509,0.57,-0.84,9.96,-0.03,-0.01,-0.00,30.99
39218196,1919,1,202222,230233,0.57,-0.83,9.95,-0.03,-0.01,-0.01,30.99
39258196,2000,1,202146,230160,0.57,-0.85,9.96,-0.03,-0.01,-0.00,30.99
39298196,1986,1,202125,230240,0.59,-0.84,9.96,-0.03,-0.01,-0.01,30.99
39338196,1991,1,202171,230633,0.56,-0.83,9.95,-0.03,-0.01,-0.00,30.99
39378196,1983,1,202312,231032,0.58,-0.82,9.97,-0.03,-0.01,-0.01,30.99
39418196,1967,1,202407,231317,0.58,-0.84,9.95,-0.03,-0.01,-0.00,30.99
39458196,1907,1,202506,231528,0.57,-0.82,9.96,-0.03,-0.01,-0.00,30.99
39498196,1937,1,202576,231833,0.58,-0.84,9.94,-0.03,-0.01,-0.00,30.99
39538197,1968,1,202680,232187,0.59,-0.83,9.95,-0.03,-0.01,-0.00,30.99
39578196,1968,1,202814,232590,0.60,-0.83,9.96,-0.03,-0.01,-0.00,30.99
39618193,1968,1,202898,233072,0.58,-0.85,9.93,-0.03,-0.01,-0.00,30.99
39658196,1988,1,203046,233409,0.57,-0.83,9.94,-0.03,-0.01,-0.00,30.99
39698196,1968,1,203124,233714,0.58,-0.84,9.96,-0.03,-0.01,-0.00,30.99
39738196,1984,1,203203,234023,0.57,-0.83,9.95,-0.03,-0.01,-0.00,30.99
39778196,1964,1,203263,234430,0.58,-0.85,9.97,-0.03,-0.01,-0.01,30.99
39818196,1955,1,203402,234887,0.59,-0.84,9.95,-0.03,-0.01,-0.00,30.99
39858196,2021,1,203505,235132,0.57,-0.83,9.97,-0.03,-0.01,-0.00,30.99
39898883,1958,1,203610,234974,0.59,-0.84,9.95,-0.03,-0.01,-0.00,31.11
39937196,2064,1,203153,233141,0.58,-0.83,9.94,-0.03,-0.01,-0.01,31.11
39977196,2030,1,202631,231870,0.60,-0.85,9.97,-0.03,-0.01,-0.00,31.11
40017193,1991,1,202308,231542,0.57,-0.83,9.94,-0.03,-0.01,-0.00,31.11
40057197,1935,1,202325,231651,0.59,-0.83,9.97,-0.03,-0.01,-0.00,31.11
40097197,1949,1,202322,231763,0.58,-0.83,9.97,-0.03,-0.01,-0.00,31.11
40137196,1997,1,202448,232218,0.58,-0.85,9.95,-0.03,-0.01,-0.00,31.11
40177197,2063,1,202642,232726,0.58,-0.84,9.95,-0.03,-0.01,-0.01,31.11
40217196,2000,1,202705,232993,0.60,-0.84,9.96,-0.03,-0.01,-0.01,31.11
40257235,2011,1,202762,233146,0.58,-0.84,9.94,-0.03,-0.01,-0.00,31.11
40297196,2010,1,202863,233374,0.58,-0.87,9.95,-0.03,-0.01,-0.00,31.11
40337196,2013,1,202924,233717,0.57,-0.85,9.96,-0.03,-0.01,-0.01,31.11
40377196,1995,1,203065,234049,0.58,-0.85,9.96,-0.03,-0.01,-0.00,31.11
40417197,2007,1,203231,234363,0.58,-0.86,9.97,-0.03,-0.01,-0.00,31.11
40457199,2012,1,203330,234517,0.58,-0.84,9.97,-0.03,-0.01,-0.00,31.11
40497197,2055,1,203392,234683,0.60,-0.85,9.94,-0.03,-0.01,-0.00,31.11
40537196,2000,1,203430,234822,0.58,-0.85,9.96,-0.03,-0.01,-0.01,31.11
40577196,2019,1,203512,234985,0.58,-0.85,9.97,-0.03,-0.01,-0.00,31.11
40617196,1981,1,203624,235115,0.58,-0.84,9.99,-0.03,-0.01,-0.00,31.11
40657197,1942,1,203643,234504,0.57,-0.84,9.96,-0.03,-0.01,-0.01,31.11
40697196,1940,1,203138,232526,0.57,-0.81,9.98,-0.03,-0.01,-0.00,31.11
40737196,1978,1,202568,231298,0.57,-0.85,9.94,-0.03,-0.01,-0.01,31.11
40777196,2011,1,202334,230926,0.58,-0.84,9.96,-0.03,-0.01,-0.00,31.11
40817196,2001,1,202296,230932,0.58,-0.85,9.97,-0.03,-0.01,-0.01,31.11
40857196,1984,1,202279,231058,0.60,-0.84,9.94,-0.03,-0.01,-0.00,31.11
40897194,1974,1,202336,231526,0.58,-0.84,9.93,-0.03,-0.01,-0.00,31.11
40937883,1973,1,202495,231784,0.58,-0.84,9.96,-0.03,-0.01,-0.00,31.19
40978196,1942,1,202444,231880,0.59,-0.84,9.94,-0.03,-0.01,-0.00,31.19
41018196,1929,1,202490,231981,0.57,-0.85,9.95,-0.03,-0.01,-0.00,31.19
41058196,1965,1,202493,232237,0.58,-0.84,9.97,-0.03,-0.01,-0.00,31.19
41098197,1999,1,202633,232466,0.58,-0.82,9.96,-0.03,-0.01,-0.00,31.19
41138196,1967,1,202612,232820,0.58,-0.82,9.94,-0.03,-0.01,-0.00,31.19
41178196,1955,1,202764,233085,0.59,-0.85,9.98,-0.03,-0.01,-0.01,31.19
41218196,1967,1,202879,233378,0.57,-0.85,9.96,-0.03,-0.01,-0.00,31.19
41258196,1984,1,202982,233745,0.58,-0.84,9.97,-0.03,-0.01,-0.00,31.19
41298196,1941,1,203028,234063,0.59,-0.85,9.94,-0.03,-0.01,-0.00,31.19
41338196,1904,1,203161,234329,0.57,-0.84,9.95,-0.03,-0.01,-0.00,31.19
41378196,1951,1,203285,234523,0.57,-0.84,9.99,-0.03,-0.01,-0.00,31.19
41418196,1942,1,203176,233214,0.58,-0.83,9.96,-0.03,-0.01,-0.01,31.19
41458197,1958,1,202514,231087,0.58,-0.84,9.98,-0.03,-0.01,-0.00,31.19
41498197,1918,1,202015,230057,0.58,-0.85,9.96,-0.03,-0.01,-0.00,31.19
41538196,1901,1,201857,229859,0.59,-0.86,9.97,-0.03,-0.01,-0.00,31.19
41576196,2018,1,201800,229922,0.58,-0.85,9.97,-0.03,-0.01,-0.00,31.19
41616196,2044,1,201782,229978,0.58,-0.84,9.97,-0.03,-0.01,-0.01,31.19
41656196,2032,1,201889,230466,0.57,-0.84,9.96,-0.03,-0.01,-0.00,31.19
41696196,2013,1,202071,230782,0.58,-0.84,9.95,-0.03,-0.01,-0.00,31.19
41736197,2058,1,202182,230942,0.58,-0.85,9.97,-0.03,-0.01,-0.00,31.19
41776196,2043,1,202259,231190,0.59,-0.84,9.96,-0.03,-0.01,-0.00,31.19
41816196,2064,1,202350,231486,0.59,-0.82,9.97,-0.03,-0.01,-0.00,31.19
41856196,2042,1,202507,231821,0.58,-0.84,9.96,-0.03,-0.01,-0.01,31.19
41896209,2009,1,202632,232146,0.58,-0.83,9.94,-0.03,-0.01,-0.00,31.19
41936196,2077,1,202771,232553,0.58,-0.85,9.96,-0.03,-0.01,-0.00,31.19
41976882,1963,1,202900,232874,0.58,-0.85,9.97,-0.03,-0.01,-0.00,31.01
42017196,1979,1,202974,233167,0.60,-0.85,9.96,-0.03,-0.01,-0.00,31.01
42057196,1982,1,203047,233404,0.58,-0.84,9.96,-0.03,-0.01,-0.00,31.01
42097215,1919,1,203129,233716,0.59,-0.84,9.94,-0.03,-0.01,-0.01,31.01
42137196,1958,1,203234,234094,0.57,-0.82,9.95,-0.03,-0.01,-0.00,31.01
42177196,1952,1,203347,233811,0.56,-0.83,9.96,-0.03,-0.01,-0.00,31.01
42217197,2021,1,202948,231779,0.59,-0.84,9.94,-0.03,-0.01,-0.00,31.01
42257196,1930,1,202286,230192,0.57,-0.84,9.94,-0.03,-0.01,-0.00,31.01
42297222,1959,1,201923,229689,0.58,-0.83,9.96,-0.03,-0.01,-0.00,31.01
42337196,1962,1,201820,229583,0.58,-0.83,9.96,-0.03,-0.01,-0.00,31.01
42377197,1901,1,201799,229671,0.60,-0.85,9.96,-0.03,-0.01,-0.01,31.01
42417196,1963,1,201793,229853,0.58,-0.84,9.97,-0.03,-0.01,-0.00,31.01
42457196,1974,1,201921,230233,0.58,-0.83,9.95,-0.03,-0.01,-0.00,31.01
42497196,1975,1,202039,230558,0.58,-0.84,9.97,-0.03,-0.01,-0.00,31.01
42537197,1979,1,202143,230840,0.59,-0.83,9.96,-0.03,-0.01,-0.00,31.01
42577196,1954,1,202133,231144,0.57,-0.84,9.95,-0.03,-0.01,-0.01,31.01
42617197,1943,1,202305,231454,0.59,-0.82,9.95,-0.03,-0.01,-0.01,31.01
42657197,1968,1,202340,231802,0.61,-0.84,9.95,-0.03,-0.01,-0.00,31.01
42697196,1952,1,202482,232271,0.58,-0.84,9.94,-0.03,-0.01,-0.01,31.01
42737197,1943,1,202634,232781,0.58,-0.83,9.97,-0.03,-0.01,-0.00,31.01
42777197,1983,1,202862,233296,0.58,-0.84,9.98,-0.03,-0.01,-0.01,31.01
42817196,1991,1,202984,233677,0.58,-0.84,9.97,-0.03,-0.01,-0.00,31.01
42857196,2000,1,203177,234092,0.58,-0.84,9.96,-0.03,-0.01,-0.00,31.01
42897197,2005,1,203305,234723,0.58,-0.84,9.96,-0.03,-0.01,-0.00,31.01
42937196,2010,1,203471,234957,0.59,-0.84,9.97,-0.03,-0.01,-0.00,31.01
42977883,2020,1,203296,233317,0.58,-0.85,9.94,-0.03,-0.01,-0.00,31.13
43016196,2055,1,202601,231577,0.58,-0.84,9.99,-0.03,-0.01,-0.00,31.13
43056196,2093,1,202244,230941,0.58,-0.83,9.94,-0.03,-0.01,-0.01,31.13
43096196,2087,1,202179,230891,0.57,-0.82,9.97,-0.03,-0.01,-0.00,31.13
43136196,2046,1,202198,230987,0.58,-0.85,9.98,-0.03,-0.01,-0.00,31.13
43176196,2031,1,202288,231300,0.60,-0.84,9.94,-0.03,-0.01,-0.00,31.13
43216193,2030,1,202472,232090,0.57,-0.84,9.99,-0.03,-0.01,-0.00,31.13
43256196,2005,1,202644,232632,0.57,-0.84,9.95,-0.03,-0.01,-0.00,31.13
43296197,1982,1,202774,232869,0.57,-0.86,9.98,-0.03,-0.01,-0.01,31.13
43336196,1997,1,202855,232994,0.58,-0.84,9.97,-0.03,-0.01,-0.01,31.13
43376196,1992,1,202921,233349,0.59,-0.83,9.97,-0.03,-0.01,-0.00,31.13
43416196,1955,1,203019,233673,0.58,-0.83,9.96,-0.03,-0.01,-0.00,31.13
43456196,1951,1,203141,234063,0.59,-0.83,9.99,-0.03,-0.01,-0.00,31.13
43496196,1951,1,203277,234498,0.58,-0.84,9.97,-0.03,-0.01,-0.00,31.13
43536196,1962,1,203324,234851,0.58,-0.83,9.94,-0.03,-0.01,-0.00,31.13
43576197,1862,1,203423,234953,0.58,-0.83,9.96,-0.03,-0.01,-0.01,31.13
43616196,1873,1,203490,234949,0.60,-0.84,9.95,-0.03,-0.01,-0.01,31.13
43656197,1979,1,203565,235255,0.57,-0.85,9.96,-0.03,-0.01,-0.00,31.13
43696196,1911,1,203625,235478,0.58,-0.85,9.95,-0.03,-0.01,-0.00,31.13
43736208,1969,1,203661,234678,0.59,-0.85,9.96,-0.04,-0.01,-0.00,31.13
43776196,1959,1,203045,232550,0.57,-0.85,9.94,-0.03,-0.01,-0.00,31.13
43816196,1997,1,202579,231661,0.59,-0.84,9.93,-0.03,-0.01,-0.00,31.13
43856196,1973,1,202384,231459,0.55,-0.85,9.96,-0.03,-0.01,-0.01,31.13
43896196,1936,1,202399,231518,0.58,-0.84,9.96,-0.03,-0.01,-0.00,31.13
43936196,1981,1,202371,231538,0.57,-0.85,9.94,-0.03,-0.01,-0.00,31.13
43976196,1904,1,202445,231636,0.59,-0.85,9.95,-0.03,-0.01,-0.01,31.13
44016883,1839,1,202425,231464,0.59,-0.85,9.96,-0.03,-0.01,-0.00,31.05
44055196,2005,1,202344,231505,0.59,-0.83,9.96,-0.03,-0.01,-0.00,31.05
44095196,2007,1,202360,231721,0.57,-0.85,9.95,-0.03,-0.01,-0.01,31.05
44135196,2001,1,202395,232055,0.57,-0.83,9.94,-0.03,-0.01,-0.01,31.05
44175197,2027,1,202536,232399,0.58,-0.84,9.97,-0.03,-0.01,-0.00,31.05
44215196,2047,1,202657,232441,0.57,-0.85,9.96,-0.03,-0.01,-0.00,31.05
44255196,2023,1,202705,232463,0.57,-0.84,9.96,-0.03,-0.01,-0.00,31.05
44295197,2058,1,202804,232704,0.58,-0.82,9.94,-0.03,-0.01,-0.00,31.05
44335196,2059,1,202904,233140,0.60,-0.84,9.96,-0.03,-0.01,-0.01,31.05
44375196,2023,1,203016,233499,0.57,-0.85,9.97,-0.03,-0.01,-0.01,31.05
44415197,2082,1,203084,233343,0.57,-0.83,9.96,-0.03,-0.01,-0.00,31.05
44455197,2021,1,202743,231432,0.59,-0.84,9.98,-0.03,-0.01,-0.00,31.05
44495196,2038,1,202075,229919,0.57,-0.87,9.95,-0.03,-0.01,-0.00,31.05
44535196,1997,1,201787,229447,0.57,-0.83,9.96,-0.03,-0.01,-0.00,31.05
44575196,2086,1,201699,229331,0.59,-0.83,9.95,-0.03,-0.01,-0.00,31.05
44615196,2023,1,201684,229367,0.56,-0.84,9.96,-0.03,-0.01,-0.00,31.05
44655196,1933,1,201738,229706,0.56,-0.85,9.96,-0.03,-0.01,-0.01,31.05
44695196,2032,1,201848,230180,0.59,-0.84,9.95,-0.03,-0.01,-0.00,31.05
44735196,1983,1,201985,230426,0.58,-0.84,9.94,-0.03,-0.01,-0.00,31.05
44775196,2032,1,202090,230760,0.57,-0.82,9.96,-0.03,-0.01,-0.00,31.05
44815196,2023,1,202076,231140,0.58,-0.83,9.96,-0.03,-0.01,-0.00,31.05
44855196,2000,1,202240,231497,0.59,-0.84,9.96,-0.03,-0.01,-0.01,31.05
44895196,1995,1,202345,231882,0.57,-0.83,9.96,-0.03,-0.01,-0.00,31.05
44935196,1984,1,202469,232265,0.58,-0.83,9.96,-0.03,-0.01,-0.00,31.05
44975196,2066,1,202520,232631,0.60,-0.83,9.96,-0.03,-0.01,-0.00,31.05
45015196,2024,1,202691,233168,0.57,-0.85,9.95,-0.03,-0.01,-0.00,31.05
45055883,1977,1,202940,233504,0.57,-0.83,9.96,-0.03,-0.01,-0.00,31.13
45096196,1990,1,203088,233927,0.60,-0.85,9.97,-0.03,-0.01,-0.00,31.13
45136193,1981,1,203113,233530,0.60,-0.85,9.95,-0.03,-0.01,-0.01,31.13
45176196,1983,1,202678,231631,0.58,-0.84,9.97,-0.03,-0.01,-0.00,31.13
45216196,1977,1,202037,230419,0.59,-0.83,9.96,-0.03,-0.01,-0.00,31.13
45256196,1969,1,201752,230212,0.61,-0.82,9.95,-0.03,-0.01,-0.00,31.13
45296196,1958,1,201725,230100,0.55,-0.84,9.94,-0.03,-0.01,-0.00,31.13
45336196,1985,1,201616,229762,0.57,-0.82,9.96,-0.03,-0.01,-0.00,31.13
45376221,1953,1,201512,229827,0.58,-0.83,9.94,-0.03,-0.01,-0.01,31.13
45416196,1954,1,201627,230155,0.55,-0.83,9.97,-0.03,-0.01,-0.01,31.13
45456196,1955,1,201691,230276,0.57,-0.83,9.96,-0.03,-0.01,-0.01,31.13
45496196,1979,1,201759,230574,0.58,-0.81,9.97,-0.03,-0.00,-0.01,31.13
45536196,1968,1,201866,231022,0.57,-0.82,9.95,-0.03,-0.01,-0.00,31.13
45576235,1984,1,202100,231722,0.55,-0.84,9.97,-0.04,-0.01,-0.01,31.13
45616196,1986,1,202361,232573,0.57,-0.85,9.99,-0.04,-0.02,-0.00,31.13
45656196,1977,1,202752,233277,0.60,-0.81,10.03,-0.04,-0.01,-0.01,31.13
45696197,2001,1,203008,233828,0.59,-0.83,9.96,-0.03,-0.01,-0.00,31.13
45736196,1990,1,203245,233959,0.58,-0.83,9.93,-0.03,-0.01,-0.00,31.13
45776196,1952,1,203219,234027,0.58,-0.82,9.93,-0.03,-0.02,-0.00,31.13
45816196,1968,1,203333,234044,0.57,-0.84,9.95,-0.04,-0.01,-0.00,31.13
45856196,1955,1,203275,233771,0.58,-0.85,9.96,-0.03,-0.01,-0.01,31.13
45896196,1958,1,202872,231819,0.59,-0.83,9.93,-0.03,-0.01,-0.01,31.13
45936196,1950,1,202144,229997,0.57,-0.83,9.95,-0.03,-0.01,-0.00,31.13
45976196,1968,1,201715,229241,0.58,-0.86,9.96,-0.04,-0.01,-0.00,31.13
46016196,1957,1,201522,228775,0.57,-0.85,9.98,-0.03,-0.01,-0.00,31.13
46056883,1985,1,201362,228186,0.58,-0.85,9.94,-0.03,-0.01,-0.01,31.19
46095196,1979,1,201098,227584,0.58,-0.83,9.96,-0.03,-0.01,-0.01,31.19
46135196,1969,1,201048,227332,0.57,-0.84,9.95,-0.03,-0.01,-0.01,31.19
46175197,2002,1,200981,227157,0.60,-0.82,9.95,-0.03,-0.01,-0.00,31.19
46215197,1987,1,200918,226804,0.57,-0.85,9.98,-0.03,-0.01,-0.00,31.19
46255196,1978,1,200749,226641,0.55,-0.83,9.97,-0.03,-0.01,-0.00,31.19
46295197,1967,1,200738,226725,0.59,-0.84,9.94,-0.03,-0.01,-0.01,31.19
46335197,1971,1,200750,226971,0.58,-0.84,9.96,-0.03,-0.01,-0.00,31.19
46375196,1973,1,200923,227360,0.58,-0.84,9.95,-0.04,-0.01,-0.01,31.19
46415196,1968,1,201003,227928,0.57,-0.85,9.97,-0.04,-0.01,-0.00,31.19
46455196,1988,1,201204,228810,0.58,-0.83,9.95,-0.03,-0.01,-0.00,31.19
46495196,1989,1,201528,230205,0.57,-0.83,9.96,-0.04,-0.01,-0.01,31.19
46535197,1994,1,202053,231800,0.57,-0.85,9.97,-0.04,-0.01,-0.00,31.19
46575197,2029,1,202450,233148,0.57,-0.83,10.00,-0.03,-0.01,-0.01,31.19
46615196,2034,1,202905,234022,0.57,-0.84,9.94,-0.03,-0.02,-0.00,31.19
46655197,2016,1,202807,232782,0.56,-0.85,9.96,-0.04,-0.01,-0.00,31.19
46695196,2032,1,202381,231907,0.60,-0.84,9.93,-0.03,-0.02,-0.00,31.19
46735193,2040,1,202373,232256,0.60,-0.84,9.97,-0.03,-0.02,-0.00,31.19
46775196,2059,1,202502,233058,0.59,-0.85,9.96,-0.03,-0.01,-0.00,31.19
46815196,2087,1,202731,234300,0.57,-0.82,9.93,-0.04,-0.00,-0.01,31.19
46855196,2125,1,203045,235748,0.58,-0.83,10.00,-0.04,-0.01,-0.01,31.19
46895196,2083,1,203537,236738,0.58,-0.84,9.94,-0.03,-0.01,-0.00,31.19
46935196,2112,1,203794,236481,0.59,-0.86,9.96,-0.03,-0.02,-0.00,31.19
46975196,2047,1,203818,237603,0.59,-0.84,9.93,-0.03,0.00,-0.01,31.19
47015227,2003,1,204260,239789,0.57,-0.84,9.97,-0.04,0.01,-0.01,31.19
47055176,2098,1,205094,241690,0.55,-0.85,9.99,-0.05,-0.01,-0.03,31.19
47095883,2154,1,205567,242501,0.57,-0.83,9.97,-0.04,-0.02,-0.01,31.35
47134196,1957,1,205679,242914,0.59,-0.84,9.94,-0.04,-0.02,-0.01,31.35
47174197,2205,1,206075,244234,0.59,-0.87,9.92,-0.04,-0.01,-0.01,31.35
47214225,2037,1,207083,245878,0.61,-0.88,9.97,-0.04,-0.00,-0.01,31.35
47254196,2037,1,207911,246395,0.55,-0.83,9.97,-0.04,-0.02,-0.02,31.35
47294196,2062,1,207762,246258,0.57,-0.86,9.98,-0.04,-0.03,-0.01,31.35
47334196,2061,1,207887,247134,0.62,-0.90,9.92,-0.04,-0.02,-0.01,31.35
47374193,2017,1,208746,247637,0.58,-0.89,9.98,-0.04,-0.01,-0.01,31.35
47414196,2003,1,208522,246164,0.58,-0.85,9.96,-0.04,-0.03,-0.01,31.35
47454197,1983,1,208524,246801,0.62,-0.86,9.93,-0.04,-0.01,-0.01,31.35
47494196,2038,1,209044,247876,0.61,-0.87,9.97,-0.04,-0.02,-0.01,31.35
47534196,2153,1,209700,248879,0.60,-0.90,9.95,-0.04,-0.01,-0.01,31.35
47574197,2282,1,210139,249486,0.61,-0.88,9.97,-0.04,-0.02,-0.01,31.35
47614197,1734,1,210342,250250,0.62,-0.85,9.95,-0.04,-0.03,-0.01,31.35
47654196,1719,1,210923,251179,0.62,-0.90,9.94,-0.04,-0.01,-0.01,31.35
47694196,1681,1,211237,251441,0.60,-0.94,9.96,-0.04,-0.02,-0.01,31.35
47734196,1712,1,211203,251478,0.66,-0.87,9.93,-0.04,-0.02,-0.01,31.35
47774196,1791,1,211046,251471,0.63,-0.88,9.96,-0.03,-0.02,-0.00,31.35
47814196,1700,1,210728,251159,0.62,-0.90,9.95,-0.03,-0.02,-0.00,31.35
47854193,1810,1,210251,250905,0.65,-0.91,9.92,-0.03,-0.01,-0.01,31.35
47894196,1712,1,209723,250747,0.64,-0.90,9.96,-0.03,-0.01,-0.00,31.35
47934193,1529,1,209687,251108,0.64,-0.87,9.94,-0.03,-0.01,-0.00,31.35
47974197,1436,1,210172,251548,0.62,-0.90,9.96,-0.03,-0.01,-0.00,31.35
48014194,1488,1,210355,252073,0.66,-0.90,9.93,-0.03,-0.01,-0.00,31.35
48054196,1535,1,210921,252457,0.62,-0.90,9.95,-0.03,-0.00,-0.01,31.35
48094193,1631,1,210881,251206,0.59,-0.89,9.98,-0.03,-0.01,-0.00,31.35
48134883,1637,1,210158,249879,0.65,-0.89,9.96,-0.03,-0.02,-0.00,31.47
48175197,1701,1,209864,249778,0.65,-0.89,9.96,-0.04,-0.02,-0.00,31.47
48215196,1726,1,210037,250569,0.64,-0.92,9.95,-0.03,-0.01,-0.01,31.47
48254197,1879,1,210683,251511,0.63,-0.87,9.95,-0.04,-0.00,-0.01,31.47
48294196,1970,1,211280,252476,0.63,-0.88,9.94,-0.03,-0.01,-0.01,31.47
48334197,2018,1,211829,253220,0.62,-0.91,9.94,-0.03,-0.01,-0.01,31.47
48374197,2029,1,212201,253613,0.60,-0.89,9.93,-0.03,-0.01,-0.01,31.47
48414196,2127,1,212337,253617,0.62,-0.89,9.95,-0.03,-0.01,-0.01,31.47
48454196,2106,1,212473,253986,0.63,-0.90,9.95,-0.03,-0.01,-0.00,31.47
48494193,2256,1,212720,254177,0.62,-0.90,9.96,-0.03,-0.01,-0.01,31.47
48534196,2231,1,212713,254206,0.62,-0.90,9.95,-0.03,-0.01,-0.00,31.47
48574193,2285,1,212791,254621,0.62,-0.89,9.93,-0.03,-0.01,-0.01,31.47
48614196,2278,1,212932,254609,0.62,-0.90,9.97,-0.03,-0.01,-0.01,31.47
48654202,2333,1,212942,254775,0.65,-0.91,9.94,-0.03,-0.01,-0.00,31.47
48694196,2160,1,213145,255019,0.64,-0.89,9.96,-0.03,-0.01,-0.00,31.47
48734196,2309,1,213240,255181,0.63,-0.90,9.95,-0.03,-0.01,-0.00,31.47
48774196,2245,1,213360,255320,0.62,-0.88,9.97,-0.03,-0.01,-0.00,31.47
48814196,2068,1,213324,254748,0.64,-0.90,9.95,-0.03,-0.01,-0.00,31.47
48854202,2343,1,212869,253426,0.64,-0.90,9.95,-0.03,-0.01,-0.00,31.47
48894193,2183,1,212587,252548,0.63,-0.89,9.96,-0.03,-0.01,-0.00,31.47
48934197,2237,1,212309,252022,0.64,-0.90,9.93,-0.03,-0.01,-0.00,31.47
48974193,2491,1,212014,251875,0.65,-0.91,9.92,-0.03,-0.01,-0.01,31.47
49014196,2320,1,211900,252109,0.64,-0.92,9.95,-0.03,-0.01,-0.00,31.47
49054197,2230,1,212307,253144,0.62,-0.88,9.95,-0.03,-0.01,-0.00,31.47
49094196,2271,1,213203,254447,0.59,-0.89,9.99,-0.03,0.00,-0.00,31.47
49134860,2251,1,213333,253836,0.63,-0.89,9.96,-0.03,-0.02,-0.01,31.49
49175196,2320,1,212813,253706,0.64,-0.89,9.94,-0.03,-0.01,-0.00,31.49
49215197,2289,1,212980,254202,0.65,-0.91,9.95,-0.03,-0.01,-0.01,31.49
49255196,2217,1,213242,254590,0.63,-0.90,9.99,-0.03,-0.01,-0.00,31.49
49294193,2212,1,213451,254710,0.63,-0.90,9.95,-0.03,-0.01,-0.01,31.49
49334196,2178,1,213302,254282,0.64,-0.90,9.96,-0.04,-0.02,-0.00,31.49
49374193,2027,1,212803,254148,0.63,-0.90,9.97,-0.03,-0.02,-0.01,31.49
49414196,1877,1,212873,254422,0.64,-0.89,9.92,-0.03,-0.00,-0.00,31.49
49454196,1893,1,212715,254417,0.64,-0.91,9.96,-0.03,-0.01,-0.01,31.49
49494196,1723,1,212547,254480,0.64,-0.88,9.94,-0.03,-0.01,-0.00,31.49
49534196,1581,1,212695,254910,0.65,-0.90,9.91,-0.03,-0.01,-0.00,31.49
49574197,1483,1,212892,254772,0.64,-0.90,9.97,-0.03,-0.01,-0.00,31.49
49614194,1575,1,212577,253969,0.65,-0.87,9.95,-0.03,-0.01,-0.00,31.49
49654196,1600,1,212126,252259,0.63,-0.90,9.96,-0.03,-0.01,-0.00,31.49
49694193,1687,1,211463,251186,0.62,-0.90,9.95,-0.03,-0.01,-0.00,31.49
49734196,1766,1,211100,250184,0.63,-0.90,9.97,-0.03,-0.01,-0.00,31.49
49774193,1840,1,210250,249199,0.63,-0.89,9.95,-0.03,-0.02,-0.00,31.49
49814196,1712,1,209769,249815,0.64,-0.87,9.94,-0.03,-0.01,-0.00,31.49
49854196,1806,1,209977,250353,0.64,-0.90,9.98,-0.03,-0.01,-0.01,31.49
49894196,1863,1,209396,250275,0.62,-0.88,9.92,-0.03,-0.02,-0.00,31.49
49934197,1984,1,209434,250369,0.63,-0.88,9.94,-0.03,-0.01,-0.00,31.49
49974196,1819,1,209489,250399,0.66,-0.89,9.97,-0.03,-0.01,-0.00,31.49
50014196,1909,1,209544,250367,0.64,-0.90,9.95,-0.03,-0.01,-0.00,31.49
50054197,1650,1,209499,250111,0.63,-0.88,9.96,-0.03,-0.01,-0.01,31.49
50094196,1687,1,209170,249510,0.63,-0.89,9.96,-0.03,-0.02,-0.00,31.49
50134882,1717,1,208861,249462,0.67,-0.87,9.95,-0.03,-0.01,-0.00,31.47
50173197,1792,1,208999,250043,0.64,-0.89,9.96,-0.03,-0.01,-0.00,31.47
50213196,1839,1,209476,250536,0.64,-0.86,9.95,-0.03,-0.01,-0.01,31.47
50253196,2023,1,209832,251060,0.63,-0.87,9.92,-0.03,-0.01,-0.00,31.47
50294202,2137,1,210187,251249,0.63,-0.88,9.96,-0.03,-0.01,-0.01,31.47
50334196,2395,1,210196,251289,0.63,-0.90,9.94,-0.03,-0.01,-0.01,31.47
50374197,2108,1,210205,251041,0.65,-0.89,9.96,-0.03,-0.01,-0.00,31.47
50414196,2022,1,209842,248614,0.64,-0.89,9.93,-0.03,-0.01,-0.00,31.47
50454196,2121,1,208314,243840,0.62,-0.88,9.96,-0.03,-0.00,-0.01,31.47
50494221,2307,1,207080,241230,0.63,-0.89,9.95,-0.03,-0.00,-0.00,31.47
50534196,2353,1,206115,239300,0.61,-0.88,9.96,-0.03,-0.01,-0.00,31.47
50574197,2320,1,205278,238142,0.63,-0.87,9.94,-0.03,-0.02,-0.00,31.47
50614196,2325,1,204831,237954,0.63,-0.91,9.92,-0.02,-0.00,-0.00,31.47
50654193,2303,1,204936,238341,0.63,-0.88,9.94,-0.03,-0.00,-0.00,31.47
50694213,2293,1,204820,237736,0.61,-0.88,9.97,-0.03,-0.01,-0.00,31.47
50734197,2336,1,204060,236436,0.62,-0.87,9.97,-0.02,-0.02,0.00,31.47
50774176,2166,1,204291,236204,0.65,-0.89,9.95,-0.02,-0.03,0.00,31.47
50814176,2360,1,203005,237801,0.68,-0.87,9.92,-0.03,-0.01,-0.00,31.47
50854197,2038,1,203946,239339,0.65,-0.84,10.02,-0.04,-0.01,-0.01,31.47
50894196,2108,1,204042,239914,0.63,-0.86,9.99,-0.03,-0.02,-0.00,31.47
50934196,1909,1,204460,241283,0.67,-0.88,9.93,-0.03,-0.01,-0.00,31.47
50974196,1990,1,205025,242646,0.65,-0.91,9.98,-0.04,-0.00,-0.01,31.47
51014196,1966,1,205215,242243,0.61,-0.84,9.97,-0.03,-0.01,-0.01,31.47
51054196,1952,1,204714,241235,0.60,-0.85,9.96,-0.03,-0.02,-0.00,31.47
51094196,1951,1,204556,240973,0.68,-0.86,9.95,-0.03,-0.01,-0.00,31.47
51134884,2064,1,204345,239263,0.67,-0.90,9.94,-0.03,-0.01,-0.01,31.27
51173196,2047,1,203176,235651,0.62,-0.87,9.94,-0.03,-0.01,-0.00,31.27
51213196,2064,1,202448,234848,0.62,-0.86,9.98,-0.03,-0.00,-0.01,31.27
51253197,1980,1,202346,234611,0.64,-0.87,9.96,-0.03,-0.01,-0.01,31.27
51293196,2075,1,202332,234278,0.62,-0.89,9.95,-0.03,-0.01,-0.00,31.27
51334196,2015,1,202140,234098,0.63,-0.88,9.93,-0.03,-0.01,-0.00,31.27
51374196,1978,1,202073,234168,0.66,-0.84,9.95,-0.03,0.00,-0.00,31.27
51414176,1987,1,202143,234187,0.62,-0.86,9.96,-0.03,-0.01,-0.00,31.27
51454196,1998,1,202196,234236,0.64,-0.90,9.95,-0.03,-0.01,-0.00,31.27
51494196,1973,1,202192,234229,0.64,-0.87,9.94,-0.03,-0.01,-0.00,31.27
51534196,1970,1,202111,234209,0.61,-0.84,9.97,-0.03,-0.01,-0.00,31.27
51574196,1927,1,202084,234121,0.62,-0.84,9.94,-0.03,-0.01,-0.00,31.27
51614196,1912,1,202051,234136,0.66,-0.87,9.96,-0.03,-0.01,-0.00,31.27
51654196,1938,1,202087,234403,0.65,-0.88,9.97,-0.03,-0.01,-0.00,31.27
51694196,1977,1,202333,235128,0.60,-0.84,9.95,-0.03,-0.01,-0.01,31.27
51734196,1863,1,202636,235826,0.62,-0.86,9.95,-0.04,-0.01,-0.00,31.27
51774196,1902,1,202756,235946,0.65,-0.90,9.96,-0.03,-0.01,-0.00,31.27
51814196,1930,1,202783,236152,0.64,-0.87,9.94,-0.03,-0.01,-0.01,31.27
51854196,1936,1,202864,236408,0.62,-0.86,9.96,-0.03,-0.01,-0.00,31.27
51894196,1919,1,202935,236024,0.63,-0.87,9.96,-0.03,-0.01,-0.00,31.27
51934196,1955,1,202440,233863,0.64,-0.88,9.95,-0.03,-0.01,-0.00,31.27
51974196,1971,1,201838,232923,0.62,-0.87,9.98,-0.03,-0.01,-0.00,31.27
52014196,1960,1,201610,232653,0.62,-0.86,9.96,-0.03,-0.01,-0.00,31.27
52054196,1871,1,201514,232493,0.64,-0.84,9.95,-0.03,-0.01,-0.01,31.27
52094196,1958,1,201469,232541,0.64,-0.86,9.96,-0.03,-0.01,-0.00,31.27
52134904,1971,1,201463,232540,0.63,-0.87,9.94,-0.03,-0.01,-0.00,31.15
52173196,2019,1,201510,232685,0.63,-0.86,9.95,-0.03,-0.01,-0.01,31.15
52213196,2083,1,201406,232546,0.62,-0.83,9.96,-0.03,-0.01,-0.00,31.15
52253196,1943,1,201368,232523,0.63,-0.89,9.96,-0.03,-0.01,-0.00,31.15
52293196,2011,1,201375,232690,0.64,-0.88,9.95,-0.03,-0.01,-0.01,31.15
52333196,1968,1,201444,232910,0.63,-0.86,9.96,-0.03,-0.01,-0.01,31.15
52373196,1968,1,201529,233121,0.62,-0.85,9.96,-0.03,-0.01,-0.00,31.15
52413196,2036,1,201545,233256,0.62,-0.87,9.96,-0.03,-0.01,-0.00,31.15
52453196,1982,1,201626,233375,0.64,-0.89,9.93,-0.03,-0.01,-0.00,31.15
52493196,2046,1,201575,233591,0.63,-0.87,9.95,-0.03,-0.01,-0.00,31.15
52533196,2071,1,201656,233823,0.64,-0.86,9.96,-0.03,-0.01,-0.00,31.15
52573197,2041,1,201725,234011,0.62,-0.87,9.96,-0.03,-0.01,-0.01,31.15
52613196,2015,1,201810,234149,0.64,-0.87,9.93,-0.03,-0.01,-0.01,31.15
52653196,2033,1,201732,234063,0.63,-0.86,9.96,-0.03,-0.01,-0.00,31.15
52693196,2013,1,201494,232506,0.64,-0.83,9.95,-0.03,-0.01,-0.00,31.15
52733196,2058,1,201018,231526,0.63,-0.87,9.95,-0.03,-0.01,-0.00,31.15
52773196,2030,1,200809,231343,0.65,-0.85,9.97,-0.03,-0.01,-0.00,31.15
52813196,1959,1,200720,231579,0.64,-0.86,9.92,-0.03,-0.01,-0.00,31.15
52853196,1992,1,200844,231833,0.64,-0.86,9.96,-0.03,-0.01,-0.00,31.15
52893196,2131,1,201097,232790,0.63,-0.86,9.95,-0.04,-0.01,-0.01,31.15
52933196,2161,1,201483,233322,0.62,-0.88,9.96,-0.04,-0.00,-0.01,31.15
52973196,2080,1,201449,233028,0.64,-0.86,9.95,-0.04,-0.03,-0.00,31.15
53013196,1886,1,201339,232932,0.64,-0.85,9.97,-0.03,-0.02,-0.00,31.15
53053196,2559,1,201249,232960,0.66,-0.86,9.94,-0.03,-0.01,-0.00,31.15
53093196,2448,1,201274,232995,0.63,-0.88,9.95,-0.03,-0.01,-0.00,31.15
53133196,2439,1,201305,233361,0.63,-0.87,9.95,-0.03,-0.01,-0.01,31.15
53173883,2320,1,201544,233949,0.66,-0.85,9.96,-0.03,-0.01,-0.00,31.15
53212196,2301,1,201668,234554,0.62,-0.86,9.96,-0.03,-0.01,-0.00,31.15
53252197,2273,1,201914,235162,0.62,-0.89,9.95,-0.03,-0.01,-0.00,31.15
53292196,2278,1,202154,235840,0.62,-0.87,9.93,-0.03,-0.01,-0.00,31.15
53332196,2192,1,202431,236658,0.62,-0.85,9.96,-0.04,-0.01,-0.01,31.15
53372196,2263,1,202687,236876,0.62,-0.86,9.97,-0.03,-0.01,-0.01,31.15
53412196,2227,1,202300,234544,0.61,-0.89,9.95,-0.03,-0.02,-0.00,31.15
53452196,2208,1,201776,234608,0.67,-0.84,9.96,-0.04,-0.02,-0.00,31.15
53492196,2079,1,202667,237958,0.59,-0.84,9.90,-0.06,-0.02,-0.01,31.15
53532193,2203,1,203292,238652,0.62,-0.87,9.94,-0.04,-0.02,-0.00,31.15
53572196,2351,1,203153,237991,0.64,-0.87,9.98,-0.03,-0.01,-0.00,31.15
53612197,2294,1,202877,237635,0.64,-0.86,9.95,-0.03,-0.01,-0.00,31.15
53652196,2237,1,202779,237576,0.62,-0.87,9.93,-0.04,-0.02,-0.00,31.15
53692196,2249,1,202626,237352,0.65,-0.89,9.92,-0.04,-0.03,-0.00,31.15
53732196,2249,1,202532,237133,0.66,-0.88,9.93,-0.03,-0.02,-0.00,31.15
53772200,2272,1,202600,238250,0.63,-0.87,9.93,-0.04,-0.01,-0.01,31.15
53812196,2250,1,203051,239370,0.64,-0.89,9.96,-0.03,-0.01,-0.01,31.15
53852196,2201,1,203289,240052,0.65,-0.88,9.95,-0.04,-0.01,-0.01,31.15
53892196,2199,1,203567,241037,0.65,-0.87,9.91,-0.03,-0.01,-0.01,31.15
53932196,2194,1,203905,241913,0.64,-0.87,9.94,-0.03,-0.01,-0.01,31.15
53972202,2160,1,204086,242321,0.64,-0.88,9.95,-0.03,-0.01,-0.01,31.15
54012196,2163,1,204195,242701,0.64,-0.92,9.95,-0.03,-0.01,-0.01,31.15
54052196,2164,1,204435,243429,0.65,-0.88,9.95,-0.04,-0.01,-0.00,31.15
54092196,2093,1,204461,243747,0.64,-0.88,9.98,-0.04,-0.01,-0.01,31.15
54132196,2145,1,204404,242086,0.63,-0.87,9.94,-0.03,-0.02,-0.00,31.15
54172196,2059,1,202896,237231,0.65,-0.90,9.94,-0.03,-0.02,-0.00,31.15
54212883,1991,1,202020,235923,0.66,-0.88,9.94,-0.03,-0.01,-0.00,31.07
54253196,1959,1,202013,235800,0.66,-0.88,9.95,-0.03,-0.02,-0.00,31.07
54293196,2047,1,201764,235717,0.66,-0.89,9.96,-0.03,-0.02,-0.00,31.07
54333196,2201,1,200987,235697,0.66,-0.87,9.92,-0.03,-0.02,-0.00,31.07
54373196,1863,1,202205,236512,0.65,-0.89,9.94,-0.03,-0.01,-0.00,31.07
54413196,2007,1,202615,237381,0.65,-0.87,9.96,-0.04,-0.01,-0.00,31.07
54453197,2107,1,202913,238070,0.68,-0.89,9.96,-0.04,-0.01,-0.00,31.07
54493196,2161,1,203054,238361,0.66,-0.89,9.96,-0.04,-0.01,-0.01,31.07
54533197,2174,1,203081,238295,0.66,-0.89,9.96,-0.04,-0.02,-0.00,31.07
54573196,2151,1,203211,238604,0.64,-0.89,9.93,-0.03,-0.01,-0.00,31.07
54613197,2157,1,202909,239021,0.66,-0.89,9.96,-0.04,-0.01,-0.01,31.07
54653196,1934,1,203241,239555,0.69,-0.89,9.95,-0.04,-0.01,-0.01,31.07
54693196,1850,1,203565,240027,0.66,-0.89,9.93,-0.04,-0.01,-0.01,31.07
54733196,1907,1,203421,240595,0.66,-0.91,9.97,-0.04,-0.02,-0.01,31.07
54773196,1773,1,202930,241190,0.67,-0.91,9.95,-0.03,-0.01,-0.00,31.07
54813196,1600,1,202842,241835,0.69,-0.88,9.94,-0.04,-0.01,-0.01,31.07
54853197,1356,1,203873,242659,0.67,-0.89,9.94,-0.04,-0.01,-0.01,31.07
54893196,1627,1,204132,240904,0.66,-0.91,9.94,-0.04,-0.01,-0.01,31.07
54933197,1795,1,202766,237594,0.68,-0.91,9.94,-0.04,-0.01,-0.01,31.07
54973196,1885,1,202373,237557,0.69,-0.91,9.94,-0.04,-0.01,-0.01,31.07
55013197,1972,1,202493,238277,0.66,-0.90,9.95,-0.03,-0.01,-0.00,31.07
55053193,2034,1,202792,238886,0.71,-0.89,9.95,-0.04,-0.02,-0.01,31.07
55093197,1968,1,203326,240115,0.67,-0.90,9.96,-0.04,-0.03,-0.00,31.07
55133193,2131,1,204520,241797,0.67,-0.94,9.96,-0.04,-0.05,-0.00,31.07
55173196,2798,1,205102,242871,0.70,-0.90,9.94,-0.04,-0.05,-0.00,31.07
55213879,3216,1,205377,243459,0.70,-0.91,9.92,-0.04,-0.03,-0.00,31.19
55252196,3414,1,205480,244114,0.73,-0.91,9.92,-0.04,-0.01,-0.01,31.19
55292196,3291,1,205717,244598,0.72,-0.93,9.95,-0.04,-0.00,-0.01,31.19
55332196,3146,1,205703,244675,0.73,-0.93,9.90,-0.04,-0.01,-0.01,31.19
55372196,2910,1,205899,244950,0.71,-0.91,9.92,-0.03,-0.01,-0.00,31.19
55412226,2739,1,205811,244850,0.73,-0.94,9.95,-0.03,-0.01,-0.00,31.19
55452196,2559,1,205867,244856,0.70,-0.95,9.95,-0.03,-0.01,-0.00,31.19
55492196,2410,1,205910,244953,0.73,-0.89,9.93,-0.03,-0.01,-0.00,31.19
55532196,2238,1,205931,244987,0.70,-0.92,9.94,-0.03,-0.01,-0.00,31.19
55572196,2123,1,205921,244959,0.74,-0.91,9.95,-0.03,-0.01,-0.00,31.19
55612196,1962,1,205607,242517,0.71,-0.91,9.92,-0.03,-0.01,-0.00,31.19
55652196,1819,1,204201,238638,0.74,-0.91,9.94,-0.03,-0.01,-0.00,31.19
55692196,1722,1,203618,238058,0.70,-0.91,9.95,-0.03,-0.01,-0.00,31.19
55732197,1605,1,203682,238420,0.72,-0.90,9.95,-0.03,-0.01,-0.00,31.19
55772193,1493,1,203879,238854,0.71,-0.90,9.92,-0.03,-0.01,-0.00,31.19
55812196,1417,1,203849,239308,0.72,-0.91,9.94,-0.03,-0.01,-0.00,31.19
55852196,1367,1,204232,240136,0.71,-0.92,9.92,-0.03,-0.01,-0.01,31.19
55892196,1306,1,204319,240359,0.71,-0.94,9.96,-0.03,-0.01,-0.00,31.19
55932196,1297,1,204363,240562,0.73,-0.90,9.94,-0.03,-0.01,-0.00,31.19
55972197,1264,1,204553,241261,0.70,-0.92,9.95,-0.03,-0.01,-0.00,31.19
56012193,1264,1,204707,242068,0.70,-0.91,9.95,-0.03,-0.01,-0.00,31.19
56052196,1263,1,204920,242727,0.70,-0.91,9.90,-0.03,-0.01,-0.01,31.19
56092193,1317,1,205078,243134,0.70,-0.91,9.94,-0.03,-0.01,-0.01,31.19
56132196,1329,1,205244,243510,0.70,-0.91,9.94,-0.03,-0.01,-0.00,31.19
56172193,1344,1,205363,243841,0.71,-0.91,9.94,-0.03,-0.01,-0.01,31.19
56212196,1376,1,205442,244070,0.72,-0.91,9.94,-0.03,-0.01,-0.00,31.19
56252883,1409,1,205508,244439,0.69,-0.91,9.97,-0.03,-0.01,-0.00,31.49
56293196,1463,1,205598,244548,0.69,-0.90,9.95,-0.03,-0.01,-0.01,31.49
56333196,1488,1,205415,242053,0.70,-0.89,9.95,-0.03,-0.01,-0.00,31.49
56373197,1535,1,203922,238348,0.70,-0.90,9.95,-0.03,-0.01,-0.00,31.49
56413192,1585,1,203465,237803,0.72,-0.90,9.91,-0.03,-0.01,-0.00,31.49
56453196,1599,1,203498,237966,0.70,-0.91,9.93,-0.03,-0.01,-0.00,31.49
56491193,1696,1,203579,238428,0.71,-0.90,9.93,-0.03,-0.01,-0.00,31.49
56531196,1746,1,203632,238944,0.72,-0.91,9.96,-0.03,-0.01,-0.00,31.49
56571197,1774,1,203944,240026,0.70,-0.92,9.93,-0.03,-0.01,-0.01,31.49
56611196,1808,1,204181,240433,0.69,-0.92,9.94,-0.03,-0.01,-0.00,31.49
56651197,1831,1,204329,240436,0.70,-0.90,9.95,-0.03,-0.01,-0.00,31.49
56691196,1853,1,204411,240316,0.71,-0.91,9.95,-0.03,-0.01,-0.00,31.49
56731197,1853,1,204463,240387,0.71,-0.91,9.99,-0.03,-0.01,-0.00,31.49
56771196,1901,1,204575,240650,0.71,-0.89,9.94,-0.03,-0.01,-0.00,31.49
56811196,1881,1,204707,241099,0.70,-0.90,9.94,-0.03,-0.01,-0.00,31.49
56851196,1917,1,204943,241764,0.72,-0.92,9.95,-0.03,-0.01,-0.00,31.49
56891197,1921,1,205218,242537,0.71,-0.90,9.93,-0.04,-0.01,-0.00,31.49
56931196,1927,1,205420,243027,0.71,-0.91,9.96,-0.03,-0.01,-0.00,31.49
56971197,1937,1,205641,243576,0.71,-0.92,9.95,-0.03,-0.01,-0.00,31.49
57011197,1949,1,205880,244071,0.71,-0.90,9.93,-0.03,-0.01,-0.01,31.49
57051202,1934,1,206007,244361,0.72,-0.91,9.94,-0.03,-0.01,-0.00,31.49
57091196,1922,1,205961,242691,0.72,-0.92,9.93,-0.03,-0.01,-0.00,31.49
57131196,1925,1,204701,239305,0.72,-0.90,9.94,-0.03,-0.01,-0.00,31.49
57171196,1936,1,204155,238592,0.70,-0.90,9.96,-0.03,-0.01,-0.00,31.49
57211193,1936,1,204151,238735,0.71,-0.93,9.97,-0.03,-0.01,-0.00,31.49
57251218,1942,1,204274,238815,0.73,-0.90,9.95,-0.03,-0.01,-0.00,31.49
57291880,1895,1,204357,239219,0.71,-0.88,9.96,-0.03,-0.01,-0.01,31.57
57332196,1904,1,204571,240158,0.72,-0.90,9.94,-0.03,-0.01,-0.00,31.57
57372193,1903,1,204862,240553,0.72,-0.91,9.93,-0.03,-0.01,-0.00,31.57
57412196,1904,1,204873,240624,0.72,-0.91,9.95,-0.03,-0.01,-0.00,31.57
57452225,1875,1,204896,241075,0.70,-0.90,9.94,-0.04,-0.01,-0.00,31.57
57492197,1893,1,205001,241401,0.72,-0.90,9.96,-0.03,-0.01,-0.00,31.57
57532193,1861,1,205169,241556,0.72,-0.90,9.95,-0.03,-0.01,-0.00,31.57
57572196,1873,1,205183,242022,0.71,-0.89,9.94,-0.03,-0.01,-0.00,31.57
57612196,1884,1,205404,242457,0.73,-0.91,9.91,-0.04,-0.01,-0.00,31.57
57652196,1871,1,205545,242658,0.70,-0.92,9.96,-0.03,-0.01,-0.00,31.57
57692193,1875,1,205625,242815,0.70,-0.91,9.96,-0.03,-0.01,-0.00,31.57
57732196,1898,1,205678,243305,0.70,-0.91,9.96,-0.03,-0.01,-0.00,31.57
57772193,1882,1,205848,243826,0.70,-0.90,9.95,-0.03,-0.01,-0.00,31.57
57812196,1877,1,206034,244006,0.72,-0.89,9.96,-0.03,-0.01,-0.00,31.57
57852197,1871,1,205630,240963,0.73,-0.87,9.89,-0.03,-0.01,-0.00,31.57
57892196,1878,1,204625,238921,0.70,-0.90,10.00,-0.03,-0.01,-0.01,31.57
57932193,1867,1,204330,238623,0.73,-0.91,9.93,-0.03,-0.01,-0.00,31.57
57972196,1869,1,204347,238866,0.71,-0.91,9.95,-0.04,-0.01,-0.00,31.57
58012196,1863,1,204383,239086,0.69,-0.89,9.99,-0.03,-0.01,-0.00,31.57
58052196,1872,1,204510,239736,0.72,-0.90,9.94,-0.03,-0.01,-0.00,31.57
58092193,1850,1,204868,240467,0.70,-0.89,9.96,-0.03,-0.01,-0.00,31.57
58132196,1856,1,204928,240559,0.70,-0.92,9.97,-0.03,-0.01,-0.00,31.57
58172193,1872,1,204996,240625,0.72,-0.90,9.96,-0.03,-0.01,-0.00,31.57
58212196,1837,1,205063,240836,0.70,-0.90,9.95,-0.03,-0.01,-0.00,31.57
58252193,1862,1,205142,241095,0.71,-0.91,9.96,-0.03,-0.01,-0.00,31.57
58292883,1872,1,205272,241612,0.70,-0.90,9.94,-0.03,-0.01,-0.00,31.53
58331193,1861,1,205357,242245,0.73,-0.91,9.94,-0.03,-0.01,-0.00,31.53
58371196,1831,1,205644,242618,0.70,-0.90,9.94,-0.03,-0.01,-0.00,31.53
58411193,1876,1,205791,243095,0.73,-0.92,9.96,-0.03,-0.01,-0.00,31.53
58451196,1889,1,205892,243657,0.73,-0.89,9.94,-0.03,-0.01,-0.01,31.53
58491196,1881,1,206111,244026,0.69,-0.91,9.92,-0.03,-0.01,-0.01,31.53
58531196,1887,1,206192,244293,0.71,-0.90,9.95,-0.03,-0.01,-0.01,31.53
58571196,1861,1,206260,243569,0.72,-0.90,9.95,-0.03,-0.01,-0.00,31.53
58611196,1835,1,205306,239930,0.71,-0.91,9.93,-0.03,-0.01,-0.00,31.53
58651196,1851,1,204591,238804,0.72,-0.91,9.95,-0.03,-0.01,-0.00,31.53
58691197,1843,1,204448,238866,0.70,-0.92,9.96,-0.03,-0.01,-0.00,31.53
58731193,1856,1,204538,238994,0.71,-0.90,9.97,-0.03,-0.01,-0.00,31.53
58771196,1849,1,204600,239312,0.73,-0.90,9.94,-0.03,-0.01,-0.00,31.53
58811193,1837,1,204731,239973,0.73,-0.89,9.93,-0.03,-0.01,-0.01,31.53
58851196,1875,1,204904,240310,0.71,-0.93,9.94,-0.03,-0.01,-0.00,31.53
58891211,1865,1,204903,240189,0.69,-0.90,9.96,-0.03,-0.01,-0.00,31.53
58931196,1849,1,204991,240337,0.70,-0.90,9.94,-0.03,-0.01,-0.00,31.53
58971193,1844,1,204990,240785,0.71,-0.90,9.99,-0.03,-0.01,-0.00,31.53
59011196,1854,1,205268,241162,0.70,-0.89,9.94,-0.03,-0.01,-0.01,31.53
59051196,1840,1,205296,241692,0.72,-0.89,9.97,-0.03,-0.01,-0.00,31.53
59091196,1859,1,205477,241907,0.69,-0.90,9.95,-0.03,-0.01,-0.00,31.53
59131193,1866,1,205543,242177,0.69,-0.87,9.94,-0.03,-0.01,-0.00,31.53
59171196,1823,1,205640,242470,0.70,-0.88,9.96,-0.03,-0.01,-0.00,31.53
59211194,1849,1,205686,242736,0.72,-0.92,9.96,-0.03,-0.01,-0.00,31.53
59251196,1840,1,205775,243073,0.69,-0.90,9.96,-0.03,-0.01,-0.01,31.53
59291196,1826,1,205876,242562,0.70,-0.91,9.95,-0.03,-0.01,-0.00,31.53
59331883,1823,1,205126,239468,0.70,-0.89,9.95,-0.03,-0.01,-0.00,31.57
59372193,1815,1,204463,238238,0.70,-0.91,9.93,-0.03,-0.01,-0.00,31.57
59412196,1851,1,204339,237979,0.70,-0.91,9.95,-0.03,-0.01,-0.00,31.57
59452193,1846,1,204309,238096,0.70,-0.90,9.94,-0.03,-0.01,-0.00,31.57
59492196,1845,1,204411,237953,0.71,-0.91,9.95,-0.03,-0.01,-0.00,31.57
59532196,1855,1,204345,238080,0.74,-0.90,9.95,-0.03,-0.01,-0.00,31.57
59572196,1840,1,204409,238050,0.71,-0.90,9.93,-0.03,-0.01,-0.00,31.57
59612193,1840,1,204415,237879,0.70,-0.90,9.96,-0.03,-0.01,-0.00,31.57
59650196,1867,1,204294,238024,0.72,-0.91,9.94,-0.03,-0.01,-0.00,31.57
59690196,1908,1,204483,238451,0.70,-0.89,9.96,-0.03,-0.01,-0.00,31.57
59730196,1872,1,204615,238986,0.69,-0.89,9.96,-0.03,-0.01,-0.00,31.57
59770196,1893,1,204848,239757,0.69,-0.88,9.94,-0.03,-0.01,-0.01,31.57
59810196,1873,1,205103,240239,0.71,-0.92,9.93,-0.03,-0.01,-0.01,31.57
59850196,1857,1,205422,240601,0.71,-0.91,9.93,-0.03,-0.01,-0.00,31.57
59890196,1872,1,205450,240926,0.70,-0.89,9.95,-0.03,-0.01,-0.00,31.57
59930193,1872,1,205641,241120,0.71,-0.90,9.95,-0.03,-0.01,-0.00,31.57
59970196,1855,1,205699,241355,0.70,-0.88,9.94,-0.03,-0.01,-0.00,31.57
60010193,1874,1,205837,241704,0.71,-0.92,9.96,-0.03,-0.01,-0.00,31.57
60050196,1889,1,205952,241723,0.72,-0.90,9.96,-0.03,-0.01,-0.00,31.57
60090193,1865,1,205460,239161,0.69,-0.90,9.94,-0.03,-0.01,-0.00,31.57
60130196,1872,1,204683,237692,0.71,-0.88,9.96,-0.03,-0.01,-0.00,31.57
60170196,1863,1,204467,237386,0.69,-0.88,9.95,-0.03,-0.01,-0.00,31.57
60210196,1872,1,204495,237255,0.71,-0.90,9.95,-0.03,-0.01,-0.00,31.57
60250193,1885,1,204410,237291,0.71,-0.89,9.95,-0.03,-0.01,-0.00,31.57
60290196,1872,1,204494,237328,0.72,-0.89,9.96,-0.03,-0.01,-0.00,31.57
60331196,1857,1,204540,237886,0.70,-0.90,9.94,-0.03,-0.01,-0.00,31.57
60371883,1853,1,204639,238185,0.71,-0.90,9.94,-0.03,-0.01,-0.00,31.57
60410193,1878,1,204725,238373,0.71,-0.88,9.97,-0.03,-0.01,-0.00,31.57
60450196,1866,1,204934,238699,0.70,-0.91,9.94,-0.03,-0.01,-0.00,31.57
60490193,1839,1,205018,239077,0.71,-0.91,9.96,-0.03,-0.01,-0.00,31.57
60530196,1843,1,205184,239507,0.71,-0.91,9.96,-0.03,-0.01,-0.00,31.57
60570196,1841,1,205282,239747,0.69,-0.90,9.93,-0.03,-0.01,-0.00,31.57
60610196,1859,1,205387,240215,0.70,-0.90,9.94,-0.03,-0.01,-0.00,31.57
60650192,1850,1,205572,240439,0.71,-0.89,9.95,-0.03,-0.01,-0.00,31.57
60690196,1855,1,205655,240561,0.69,-0.91,9.95,-0.03,-0.01,-0.00,31.57
60730196,1853,1,205638,240782,0.73,-0.89,9.93,-0.03,-0.01,-0.00,31.57
60770196,1875,1,205766,241046,0.70,-0.89,9.95,-0.03,-0.01,-0.00,31.57
60810193,1870,1,205841,241092,0.69,-0.90,9.92,-0.03,-0.01,-0.00,31.57
60850197,1875,1,205618,239210,0.70,-0.89,9.96,-0.03,-0.01,-0.00,31.57
60890193,1872,1,204715,237165,0.70,-0.90,9.95,-0.03,-0.01,-0.00,31.57
60930196,1878,1,204354,236600,0.71,-0.90,9.96,-0.03,-0.01,-0.00,31.57
60970193,1885,1,204297,236321,0.69,-0.89,9.95,-0.03,-0.01,-0.00,31.57
61010196,1877,1,204248,236162,0.73,-0.91,9.93,-0.03,-0.01,-0.00,31.57
61050196,1863,1,204218,236188,0.71,-0.91,9.95,-0.03,-0.01,-0.00,31.57
61090196,1875,1,204356,236571,0.69,-0.89,9.94,-0.03,-0.01,-0.01,31.57
61130196,1859,1,204565,236733,0.71,-0.89,9.93,-0.03,-0.01,-0.00,31.57
61170196,1854,1,204533,236843,0.71,-0.90,9.96,-0.03,-0.01,-0.00,31.57
61210193,1859,1,204572,236903,0.70,-0.91,9.98,-0.03,-0.01,-0.00,31.57
61250196,1860,1,204503,237300,0.70,-0.88,9.96,-0.03,-0.01,-0.00,31.57
61290193,1856,1,204805,237944,0.71,-0.91,9.96,-0.03,-0.01,-0.00,31.57
61330196,1847,1,205005,238528,0.70,-0.91,9.95,-0.03,-0.01,-0.00,31.57
61371193,1851,1,205228,238799,0.71,-0.90,9.95,-0.03,-0.01,-0.00,31.57
61411883,1851,1,205206,239280,0.69,-0.89,9.95,-0.03,-0.01,-0.00,31.33
61450196,1840,1,205397,239657,0.70,-0.91,9.95,-0.03,-0.01,-0.00,31.33
61490197,1856,1,205471,240232,0.69,-0.90,9.95,-0.03,-0.01,-0.01,31.33
61530196,1847,1,205692,240790,0.69,-0.88,9.96,-0.03,-0.01,-0.00,31.33
61570196,1841,1,205840,241335,0.70,-0.91,9.95,-0.03,-0.01,-0.00,31.33
61610193,1843,1,205941,240945,0.70,-0.91,9.95,-0.03,-0.01,-0.00,31.33
61650196,1854,1,205261,237975,0.69,-0.88,9.94,-0.03,-0.01,-0.00,31.33
