timestamp_us,ecg,leads,ir,red,accX,accY,accZ,gyroX,gyroY,gyroZ,temp
1917488,1802,1,201609,231504,0.00,0.00,0.00,0.00,0.00,0.00,0.00
1947959,1567,1,201594,231457,0.56,-0.79,9.70,-0.03,-0.01,-0.00,33.85
1988199,1371,1,201671,231530,0.57,-0.79,9.96,-0.03,-0.01,-0.00,33.85
2028189,1306,1,201741,231780,0.56,-0.81,9.96,-0.03,-0.01,-0.00,33.85
2068193,1273,1,201854,232107,0.56,-0.80,9.96,-0.03,-0.01,-0.00,33.85
2108189,1303,1,201994,232150,0.56,-0.79,9.96,-0.03,-0.01,-0.00,33.85
2148192,1354,1,201992,231637,0.58,-0.79,9.95,-0.03,-0.01,-0.00,33.85
2188189,1399,1,201662,230458,0.58,-0.82,9.97,-0.04,-0.01,-0.00,33.85
2228193,1463,1,201363,229897,0.55,-0.81,9.97,-0.03,-0.01,-0.00,33.85
2268189,1489,1,201253,230147,0.57,-0.82,9.96,-0.04,-0.01,-0.01,33.85
2308193,1565,1,201418,230712,0.58,-0.82,9.95,-0.04,-0.01,-0.00,33.85
2348189,1608,1,201464,231304,0.58,-0.80,9.96,-0.03,-0.01,-0.00,33.85
2388193,1707,1,201743,231880,0.56,-0.81,9.94,-0.03,-0.01,-0.00,33.85
2428190,1749,1,201929,232188,0.58,-0.80,9.95,-0.03,-0.02,-0.00,33.85
2468192,1764,1,201960,232426,0.56,-0.79,9.96,-0.03,-0.01,-0.00,33.85
2508188,1834,1,202003,232641,0.58,-0.83,9.97,-0.03,-0.01,-0.00,33.85
2548192,1898,1,202113,232837,0.57,-0.81,9.96,-0.03,-0.01,-0.00,33.85
2588189,1933,1,202168,233066,0.58,-0.81,9.96,-0.03,-0.01,-0.00,33.85
2628193,1978,1,202277,233312,0.58,-0.82,9.95,-0.03,-0.01,-0.00,33.85
2668189,1957,1,202365,233629,0.57,-0.80,9.95,-0.04,-0.01,-0.00,33.85
2708192,2005,1,202449,233829,0.57,-0.79,9.98,-0.04,-0.01,-0.00,33.85
2748189,2015,1,202468,233543,0.58,-0.80,9.95,-0.03,-0.01,-0.00,33.85
2788192,2085,1,202176,232607,0.55,-0.82,9.94,-0.03,-0.01,-0.01,33.85
2828189,2079,1,201928,231868,0.58,-0.84,9.98,-0.03,-0.01,-0.01,33.85
2868193,2106,1,201791,231450,0.56,-0.82,9.95,-0.03,-0.01,-0.00,33.85
2908190,2053,1,201829,231342,0.56,-0.81,9.96,-0.03,-0.01,-0.01,33.85
2948193,2053,1,201943,231573,0.58,-0.81,9.97,-0.03,-0.01,-0.00,33.85
2988876,2066,1,202057,232022,0.58,-0.79,9.96,-0.03,-0.01,-0.00,33.77
3027198,2058,1,202135,232351,0.57,-0.80,9.92,-0.03,-0.01,-0.00,33.77
3067223,2033,1,202202,232701,0.57,-0.78,9.95,-0.03,-0.01,-0.00,33.77
3107192,2085,1,202302,232983,0.58,-0.81,9.98,-0.03,-0.01,-0.00,33.77
3147188,2099,1,202434,233162,0.57,-0.82,9.98,-0.03,-0.01,-0.00,33.77
3187193,2122,1,202667,233260,0.58,-0.81,9.97,-0.03,-0.01,-0.00,33.77
3227189,2087,1,202739,233430,0.57,-0.81,9.95,-0.03,-0.01,-0.00,33.77
3267193,2086,1,202776,233581,0.56,-0.82,9.94,-0.03,-0.01,-0.00,33.77
3307189,2090,1,202839,233773,0.57,-0.80,9.95,-0.03,-0.01,-0.01,33.77
3347192,2044,1,202868,233915,0.58,-0.82,9.98,-0.03,-0.01,-0.00,33.77
3387190,2046,1,202772,233178,0.58,-0.81,9.94,-0.03,-0.01,-0.00,33.77
3427193,2061,1,202410,231882,0.58,-0.81,9.95,-0.03,-0.01,-0.00,33.77
3467189,2007,1,202067,231184,0.57,-0.81,9.96,-0.03,-0.01,-0.00,33.77
3507192,2019,1,201951,231165,0.56,-0.81,9.96,-0.03,-0.01,-0.00,33.77
3547190,2028,1,201983,231369,0.56,-0.79,9.96,-0.03,-0.01,-0.00,33.77
3587193,1979,1,202123,231699,0.57,-0.78,9.96,-0.03,-0.01,-0.00,33.77
3627189,2013,1,202286,231994,0.59,-0.82,9.96,-0.03,-0.01,-0.00,33.77
3667193,2002,1,202356,232281,0.57,-0.83,9.97,-0.03,-0.01,-0.01,33.77
3707190,1977,1,202437,232450,0.58,-0.80,9.95,-0.03,-0.01,-0.00,33.77
3747193,2007,1,202466,232614,0.58,-0.80,9.96,-0.03,-0.01,-0.00,33.77
3787241,2026,1,202570,232811,0.56,-0.82,9.98,-0.03,-0.01,-0.00,33.77
3827193,1991,1,202721,233055,0.58,-0.81,9.95,-0.03,-0.01,-0.01,33.77
3867190,2000,1,202816,233406,0.58,-0.81,9.97,-0.03,-0.01,-0.00,33.77
3907193,1989,1,202950,233599,0.58,-0.82,9.95,-0.03,-0.01,-0.00,33.77
3947190,1991,1,203002,233687,0.55,-0.82,9.95,-0.03,-0.01,-0.00,33.77
3987197,1989,1,203003,233565,0.57,-0.80,9.96,-0.03,-0.01,-0.00,33.77
4027892,1973,1,202933,232770,0.58,-0.79,9.96,-0.03,-0.01,-0.00,33.73
4066193,2038,1,202499,231049,0.57,-0.80,9.97,-0.03,-0.01,-0.00,33.73
4106189,2058,1,201913,229799,0.55,-0.81,9.96,-0.03,-0.01,-0.00,33.73
4146193,2053,1,201691,229519,0.58,-0.81,9.96,-0.03,-0.01,-0.00,33.73
4186189,2064,1,201710,229676,0.58,-0.81,9.98,-0.03,-0.01,-0.00,33.73
4226193,2018,1,201724,230209,0.55,-0.81,9.97,-0.03,-0.01,-0.01,33.73
4266190,2053,1,201905,230824,0.58,-0.81,9.95,-0.03,-0.01,-0.00,33.73
4306193,2015,1,202037,231289,0.57,-0.80,9.97,-0.03,-0.01,-0.01,33.73
4346189,2017,1,202125,231561,0.57,-0.81,9.96,-0.03,-0.01,-0.01,33.73
4386193,2018,1,202222,231834,0.56,-0.80,9.95,-0.03,-0.01,-0.00,33.73
4426189,2038,1,202315,232119,0.58,-0.80,9.94,-0.03,-0.01,-0.00,33.73
4466193,2063,1,202383,232428,0.57,-0.81,9.95,-0.03,-0.01,-0.00,33.73
4506189,1999,1,202390,232693,0.57,-0.81,9.91,-0.03,-0.01,-0.00,33.73
4546193,1991,1,202431,232995,0.58,-0.81,9.96,-0.03,-0.01,-0.00,33.73
4586189,2032,1,202552,233332,0.58,-0.83,9.95,-0.03,-0.01,-0.00,33.73
4626193,2035,1,202608,233642,0.57,-0.81,9.96,-0.03,-0.01,-0.00,33.73
4666190,2057,1,202564,233099,0.54,-0.81,9.99,-0.03,-0.01,-0.00,33.73
4706193,2032,1,202238,232138,0.57,-0.83,9.95,-0.03,-0.01,-0.00,33.73
4746189,2058,1,201982,231613,0.56,-0.80,9.95,-0.03,-0.01,-0.00,33.73
4786193,2053,1,201925,231693,0.57,-0.81,9.96,-0.03,-0.01,-0.00,33.73
4826189,1991,1,201927,232038,0.57,-0.81,9.96,-0.03,-0.01,-0.00,33.73
4866193,2011,1,202090,232505,0.57,-0.79,9.95,-0.03,-0.01,-0.00,33.73
4906189,1995,1,202307,233013,0.58,-0.81,9.97,-0.03,-0.01,-0.00,33.73
4946192,2022,1,202533,233290,0.57,-0.82,9.98,-0.03,-0.01,-0.00,33.73
4986189,2014,1,202752,233564,0.58,-0.82,9.96,-0.03,-0.01,-0.00,33.73
5026198,2015,1,202927,233775,0.58,-0.78,9.95,-0.03,-0.01,-0.00,33.73
5066876,1978,1,202974,234055,0.56,-0.83,9.95,-0.03,-0.01,-0.00,33.47
5107193,1982,1,203009,234274,0.57,-0.81,9.97,-0.04,-0.01,-0.01,33.47
5147190,2000,1,203123,234644,0.57,-0.79,9.97,-0.03,-0.01,-0.00,33.47
5187193,1983,1,203360,234944,0.58,-0.81,9.94,-0.03,-0.01,-0.00,33.47
5227189,1979,1,203513,235089,0.57,-0.82,9.95,-0.03,-0.01,-0.00,33.47
5267193,1979,1,203690,234962,0.58,-0.82,9.94,-0.03,-0.02,-0.00,33.47
5307189,2000,1,203580,233826,0.58,-0.79,9.94,-0.03,-0.01,-0.00,33.47
5347193,1984,1,203080,232497,0.58,-0.82,9.96,-0.04,-0.01,-0.00,33.47
5387190,1984,1,202784,231880,0.57,-0.81,9.96,-0.03,-0.01,-0.00,33.47
5427230,1968,1,202764,231927,0.58,-0.80,9.96,-0.03,-0.01,-0.00,33.47
5467190,1971,1,202775,232151,0.59,-0.80,9.99,-0.03,-0.01,-0.00,33.47
5507193,1971,1,202905,232560,0.57,-0.81,9.95,-0.03,-0.01,-0.00,33.47
5547190,1966,1,203082,232920,0.57,-0.81,9.97,-0.03,-0.01,-0.00,33.47
5587193,1993,1,203194,233096,0.58,-0.81,9.93,-0.03,-0.01,-0.00,33.47
5626227,1996,1,203207,233097,0.56,-0.83,9.94,-0.03,-0.01,-0.01,33.47
5666193,1989,1,203233,233241,0.57,-0.81,9.96,-0.03,-0.01,-0.01,33.47
5706190,1981,1,203323,233485,0.58,-0.79,9.95,-0.03,-0.01,-0.00,33.47
5746193,1996,1,203432,233616,0.57,-0.78,9.96,-0.03,-0.01,-0.01,33.47
5786190,1984,1,203461,233754,0.57,-0.82,9.95,-0.03,-0.01,-0.00,33.47
5826230,2004,1,203572,233849,0.58,-0.81,9.97,-0.03,-0.01,-0.00,33.47
5866189,2021,1,203671,234097,0.57,-0.79,9.96,-0.03,-0.01,-0.00,33.47
5906193,2001,1,203808,234227,0.58,-0.81,9.95,-0.03,-0.01,-0.01,33.47
5946190,1991,1,203697,233146,0.58,-0.79,9.95,-0.03,-0.01,-0.00,33.47
5986193,1998,1,203222,231661,0.58,-0.80,9.94,-0.03,-0.01,-0.00,33.47
6026193,1987,1,202921,231076,0.57,-0.79,9.99,-0.03,-0.01,-0.00,33.47
6066193,2009,1,202892,230916,0.57,-0.80,9.97,-0.03,-0.01,-0.00,33.47
6106876,1968,1,202844,231071,0.58,-0.80,9.95,-0.03,-0.01,-0.00,32.85
6145193,2047,1,203002,231673,0.59,-0.79,9.98,-0.03,-0.01,-0.00,32.85
6185189,2047,1,203270,232157,0.58,-0.81,9.96,-0.03,-0.01,-0.00,32.85
6225193,2065,1,203442,232310,0.59,-0.80,9.96,-0.03,-0.01,-0.00,32.85
6265189,2055,1,203525,232564,0.60,-0.80,9.97,-0.04,-0.01,-0.01,32.85
6305193,2054,1,203707,232874,0.57,-0.80,9.96,-0.03,-0.01,-0.00,32.85
6345189,2054,1,203881,233289,0.57,-0.80,9.97,-0.03,-0.01,-0.00,32.85
6385193,2064,1,204048,233685,0.58,-0.80,9.97,-0.04,-0.02,-0.00,32.85
6425190,2056,1,204215,234131,0.59,-0.82,9.95,-0.04,-0.02,-0.00,32.85
6466193,2004,1,204337,234474,0.57,-0.81,9.96,-0.04,-0.01,-0.00,32.85
6506190,1999,1,204446,234932,0.59,-0.81,9.95,-0.04,-0.01,-0.01,32.85
6546193,2030,1,204589,235259,0.59,-0.81,9.96,-0.04,-0.01,-0.00,32.85
6586190,2019,1,204586,235210,0.57,-0.80,9.95,-0.03,-0.01,-0.00,32.85
6626193,2025,1,204401,234052,0.59,-0.82,9.96,-0.03,-0.01,-0.01,32.85
6666190,2017,1,203948,232727,0.58,-0.81,9.97,-0.03,-0.01,-0.01,32.85
6706193,2019,1,203684,232308,0.58,-0.82,9.99,-0.03,-0.01,-0.00,32.85
6746190,1996,1,203581,232491,0.57,-0.81,9.95,-0.03,-0.01,-0.00,32.85
6786193,2000,1,203685,232861,0.60,-0.83,9.94,-0.03,-0.01,-0.00,32.85
6826190,1995,1,203752,233360,0.61,-0.82,9.97,-0.03,-0.01,-0.00,32.85
6866193,2000,1,203918,233616,0.56,-0.81,9.96,-0.03,-0.01,-0.00,32.85
6906190,1999,1,203957,233687,0.58,-0.80,9.96,-0.03,-0.01,-0.00,32.85
6946193,1991,1,204012,233827,0.58,-0.80,9.97,-0.03,-0.01,-0.00,32.85
6986189,1971,1,204039,233999,0.59,-0.80,9.97,-0.03,-0.01,-0.00,32.85
7026196,2006,1,204079,234135,0.58,-0.80,9.94,-0.03,-0.01,-0.01,32.85
7066189,1983,1,204099,234406,0.58,-0.81,9.96,-0.03,-0.01,-0.01,32.85
7106193,2005,1,204147,234587,0.59,-0.83,9.95,-0.03,-0.01,-0.00,32.85
7146877,1976,1,204134,234876,0.58,-0.80,9.97,-0.03,-0.01,-0.01,32.05
7185193,2045,1,204298,235041,0.57,-0.81,9.96,-0.03,-0.01,-0.00,32.05
7225189,2022,1,204364,235188,0.59,-0.81,9.95,-0.03,-0.01,-0.00,32.05
7265242,2029,1,204334,234493,0.58,-0.80,9.97,-0.03,-0.01,-0.00,32.05
7305189,2030,1,203860,232763,0.61,-0.80,9.96,-0.03,-0.01,-0.00,32.05
7345193,2031,1,203435,231579,0.58,-0.82,9.94,-0.03,-0.01,-0.00,32.05
7385189,2000,1,203269,231338,0.58,-0.81,9.95,-0.03,-0.01,-0.00,32.05
7425193,2002,1,203254,231431,0.60,-0.81,9.95,-0.03,-0.01,-0.00,32.05
7465216,2013,1,203307,231718,0.58,-0.79,9.94,-0.03,-0.01,-0.01,32.05
7505193,2024,1,203426,232093,0.59,-0.81,9.95,-0.03,-0.01,-0.00,32.05
7545189,2020,1,203530,232259,0.57,-0.81,9.96,-0.03,-0.01,-0.01,32.05
7585193,2035,1,203537,232286,0.58,-0.83,9.94,-0.03,-0.01,-0.01,32.05
7625190,2028,1,203519,232511,0.58,-0.81,9.96,-0.03,-0.01,-0.01,32.05
7665193,2042,1,203696,232781,0.58,-0.82,9.97,-0.03,-0.01,-0.00,32.05
7705189,2028,1,203846,233035,0.57,-0.82,9.96,-0.03,-0.01,-0.00,32.05
7745193,2007,1,203912,233217,0.57,-0.83,9.97,-0.03,-0.01,-0.01,32.05
7785189,2031,1,204075,233657,0.58,-0.80,9.97,-0.03,-0.01,-0.00,32.05
7825193,2035,1,204123,234035,0.58,-0.81,9.96,-0.03,-0.01,-0.01,32.05
7865189,2023,1,204235,234181,0.57,-0.81,9.96,-0.03,-0.01,-0.00,32.05
7905193,2035,1,204134,233479,0.60,-0.80,9.95,-0.03,-0.01,-0.00,32.05
7945189,2036,1,203748,231552,0.57,-0.83,9.99,-0.03,-0.01,-0.00,32.05
7985192,2016,1,203235,230524,0.58,-0.82,9.93,-0.03,-0.01,-0.00,32.05
8025198,2055,1,202962,230595,0.58,-0.82,9.98,-0.03,-0.01,-0.01,32.05
8065193,2011,1,203091,231009,0.58,-0.82,9.94,-0.03,-0.01,-0.01,32.05
8105189,2000,1,203212,231518,0.57,-0.80,9.99,-0.03,-0.01,-0.00,32.05
8145193,2005,1,203479,232011,0.60,-0.81,9.96,-0.03,-0.01,-0.00,32.05
8185875,1997,1,203623,232295,0.56,-0.79,9.97,-0.03,-0.01,-0.01,31.61
8226193,2015,1,203686,232518,0.60,-0.82,9.96,-0.03,-0.01,-0.00,31.61
8266189,2006,1,203813,232578,0.57,-0.81,9.95,-0.03,-0.01,-0.00,31.61
8306193,1997,1,203774,232749,0.60,-0.82,9.96,-0.03,-0.01,-0.01,31.61
8344189,2091,1,203855,232844,0.59,-0.79,9.96,-0.03,-0.01,-0.00,31.61
8384193,2086,1,203957,233067,0.58,-0.82,9.96,-0.03,-0.01,-0.01,31.61
8424190,2096,1,204016,233397,0.58,-0.81,9.94,-0.03,-0.01,-0.00,31.61
8464193,2107,1,204093,233611,0.58,-0.81,9.99,-0.03,-0.01,-0.00,31.61
8504190,2086,1,204271,234096,0.58,-0.81,9.96,-0.03,-0.01,-0.00,31.61
8544193,2101,1,204345,233893,0.57,-0.82,9.96,-0.03,-0.01,-0.00,31.61
8584190,2088,1,204195,232229,0.58,-0.78,9.94,-0.03,-0.01,-0.00,31.61
8624193,2087,1,203618,230624,0.59,-0.81,9.99,-0.03,-0.01,-0.00,31.61
8664190,2082,1,203393,230400,0.57,-0.82,9.97,-0.03,-0.01,-0.01,31.61
8704193,2059,1,203390,230498,0.59,-0.82,9.97,-0.03,-0.01,-0.01,31.61
8744190,2053,1,203463,230809,0.58,-0.79,9.95,-0.03,-0.01,-0.00,31.61
8784193,2053,1,203534,231324,0.58,-0.81,9.96,-0.03,-0.01,-0.00,31.61
8824190,2064,1,203650,231530,0.58,-0.79,9.95,-0.03,-0.01,-0.00,31.61
8864193,2064,1,203754,231833,0.59,-0.84,9.97,-0.03,-0.01,-0.00,31.61
8904199,2071,1,203876,232065,0.59,-0.82,9.95,-0.03,-0.01,-0.01,31.61
8944193,2047,1,203888,232245,0.57,-0.79,9.96,-0.03,-0.01,-0.00,31.61
8984189,2042,1,203928,232434,0.56,-0.81,9.94,-0.03,-0.01,-0.00,31.61
9024258,2058,1,204013,232696,0.58,-0.81,9.97,-0.03,-0.01,-0.00,31.61
9064190,2059,1,204125,233027,0.57,-0.82,9.95,-0.03,-0.01,-0.00,31.61
9104197,2071,1,204286,233363,0.57,-0.80,9.97,-0.03,-0.01,-0.00,31.61
9144190,2073,1,204339,233733,0.57,-0.79,9.96,-0.03,-0.01,-0.00,31.61
9184193,2062,1,204489,234070,0.58,-0.81,9.93,-0.03,-0.01,-0.00,31.61
9224876,2005,1,204512,233957,0.58,-0.81,9.94,-0.03,-0.00,-0.00,31.47
9265193,2047,1,204154,232478,0.57,-0.79,9.97,-0.03,-0.01,-0.00,31.47
9305211,1991,1,203595,231151,0.58,-0.80,9.95,-0.03,-0.01,-0.00,31.47
9345193,2010,1,203354,230869,0.57,-0.82,9.97,-0.03,-0.01,-0.01,31.47
9385190,1990,1,203410,231044,0.60,-0.82,9.95,-0.03,-0.01,-0.00,31.47
9425193,1999,1,203504,231521,0.60,-0.79,9.97,-0.03,-0.01,-0.00,31.47
9465189,2000,1,203678,232166,0.57,-0.81,9.97,-0.04,-0.01,-0.00,31.47
9505193,1984,1,203843,232495,0.56,-0.81,9.96,-0.03,-0.01,-0.00,31.47
9544190,2036,1,203964,232701,0.57,-0.82,9.96,-0.03,-0.01,-0.00,31.47
9584193,2047,1,204228,233131,0.58,-0.84,9.96,-0.03,-0.01,-0.00,31.47
9624190,2031,1,204344,233397,0.58,-0.84,9.96,-0.03,-0.01,-0.00,31.47
9664193,2036,1,204454,233633,0.59,-0.82,9.96,-0.03,-0.01,-0.00,31.47
9704190,2021,1,204680,234171,0.59,-0.84,9.94,-0.03,-0.01,-0.01,31.47
9744193,2043,1,204741,234361,0.57,-0.80,9.99,-0.03,-0.01,-0.00,31.47
9784189,2033,1,204949,234756,0.60,-0.83,9.96,-0.03,-0.01,-0.00,31.47
9824193,2038,1,204974,235007,0.58,-0.82,9.96,-0.03,-0.01,-0.01,31.47
9864190,2031,1,205025,235074,0.57,-0.80,9.94,-0.03,-0.01,-0.00,31.47
9904193,2030,1,205145,234911,0.61,-0.81,9.93,-0.03,-0.01,-0.01,31.47
9944190,2027,1,204735,233462,0.61,-0.82,9.93,-0.03,-0.01,-0.00,31.47
9984193,2010,1,204215,232183,0.58,-0.80,9.95,-0.03,-0.01,-0.00,31.47
10024216,2019,1,203843,231758,0.57,-0.83,9.97,-0.03,-0.01,-0.01,31.47
10064193,2019,1,203884,231860,0.57,-0.81,9.94,-0.03,-0.01,-0.00,31.47
10104190,2013,1,203971,232308,0.58,-0.82,9.97,-0.03,-0.01,-0.01,31.47
10144193,2003,1,204048,232806,0.57,-0.81,9.99,-0.03,-0.01,-0.01,31.47
10184193,2021,1,204282,233092,0.59,-0.81,9.97,-0.03,-0.01,-0.00,31.47
10224879,2022,1,204228,233226,0.58,-0.82,9.94,-0.03,-0.01,-0.00,31.55
10265190,2020,1,204111,233301,0.58,-0.82,9.97,-0.03,-0.01,-0.00,31.55
10305193,2000,1,204248,233462,0.58,-0.82,9.94,-0.03,-0.01,-0.00,31.55
10345190,1993,1,204256,233560,0.58,-0.80,9.97,-0.03,-0.01,-0.00,31.55
10385193,2003,1,204339,233795,0.59,-0.82,9.95,-0.03,-0.01,-0.00,31.55
10425190,2007,1,204281,233813,0.59,-0.83,9.96,-0.03,-0.01,-0.00,31.55
10465193,2003,1,204473,234014,0.57,-0.82,9.98,-0.03,-0.01,-0.00,31.55
10505190,2001,1,204458,234238,0.59,-0.80,9.99,-0.03,-0.01,-0.01,31.55
10544198,2028,1,204538,234241,0.59,-0.82,9.96,-0.03,-0.01,-0.00,31.55
10584190,2021,1,204466,233030,0.58,-0.84,9.93,-0.03,-0.01,-0.00,31.55
10624193,2016,1,203800,231203,0.58,-0.81,9.95,-0.03,-0.01,-0.00,31.55
10664190,2010,1,203494,230610,0.59,-0.80,9.97,-0.03,-0.01,-0.00,31.55
10704193,2015,1,203352,230667,0.57,-0.80,9.98,-0.03,-0.01,-0.01,31.55
10744214,2016,1,203468,230880,0.59,-0.80,9.96,-0.03,-0.01,-0.00,31.55
10784193,1996,1,203652,231510,0.60,-0.79,9.96,-0.03,-0.01,-0.01,31.55
10824190,2014,1,203805,231881,0.58,-0.81,9.97,-0.03,-0.01,-0.00,31.55
10864193,2021,1,203884,231959,0.57,-0.81,9.97,-0.03,-0.01,-0.00,31.55
10904190,1998,1,203939,232057,0.60,-0.81,9.96,-0.03,-0.01,-0.00,31.55
10944210,1990,1,204054,232258,0.58,-0.81,9.96,-0.03,-0.01,-0.01,31.55
10984193,2025,1,204020,232354,0.57,-0.79,9.95,-0.03,-0.01,-0.00,31.55
11024216,2006,1,204139,232578,0.59,-0.82,9.96,-0.03,-0.01,-0.00,31.55
11064190,2011,1,204197,232823,0.59,-0.81,9.95,-0.03,-0.01,-0.00,31.55
11104193,2010,1,204348,233118,0.56,-0.81,9.96,-0.03,-0.01,-0.00,31.55
11144190,2026,1,204444,233504,0.58,-0.82,9.99,-0.03,-0.01,-0.00,31.55
11184193,2011,1,204374,233481,0.58,-0.81,9.98,-0.03,-0.01,-0.00,31.55
11224877,1995,1,204485,232960,0.60,-0.81,9.96,-0.03,-0.01,-0.01,31.49
11263193,2055,1,203943,230989,0.58,-0.82,9.97,-0.03,-0.01,-0.00,31.49
11303190,2039,1,203321,229739,0.60,-0.80,9.96,-0.03,-0.01,-0.00,31.49
11343193,2057,1,203144,229669,0.59,-0.80,9.96,-0.03,-0.01,-0.00,31.49
11383190,2041,1,202970,229743,0.58,-0.82,9.95,-0.03,-0.01,-0.01,31.49
11423193,2058,1,203173,230080,0.59,-0.81,9.96,-0.03,-0.01,-0.00,31.49
11463190,2064,1,203252,230576,0.58,-0.81,9.97,-0.03,-0.01,-0.00,31.49
11503193,2063,1,203350,230942,0.58,-0.80,9.98,-0.03,-0.01,-0.01,31.49
11543190,2043,1,203447,231125,0.58,-0.83,9.95,-0.03,-0.01,-0.00,31.49
11584193,2009,1,203528,231181,0.57,-0.80,9.97,-0.03,-0.01,-0.00,31.49
11624190,1981,1,203598,231634,0.57,-0.83,9.97,-0.03,-0.01,-0.01,31.49
11664193,1994,1,203760,232112,0.57,-0.82,9.97,-0.03,-0.01,-0.00,31.49
11704190,1982,1,203786,232402,0.58,-0.83,9.96,-0.03,-0.01,-0.00,31.49
11744192,2007,1,203982,232796,0.57,-0.82,9.97,-0.03,-0.01,-0.01,31.49
11784193,2017,1,204111,233088,0.59,-0.81,9.97,-0.03,-0.01,-0.01,31.49
11824193,2023,1,204062,233156,0.58,-0.82,9.96,-0.03,-0.01,-0.00,31.49
11864190,2020,1,204145,233278,0.56,-0.83,9.94,-0.03,-0.01,-0.00,31.49
11904193,1994,1,204149,232620,0.58,-0.78,9.98,-0.03,-0.01,-0.00,31.49
11944190,1997,1,203749,231073,0.60,-0.80,9.97,-0.03,-0.01,-0.00,31.49
11984193,1995,1,203205,230187,0.57,-0.81,9.97,-0.03,-0.01,-0.00,31.49
12024216,1993,1,203276,230412,0.57,-0.83,9.95,-0.03,-0.01,-0.00,31.49
12064193,1963,1,203425,230818,0.58,-0.83,9.95,-0.04,-0.01,-0.00,31.49
12104190,1993,1,203633,231573,0.58,-0.83,9.96,-0.03,-0.01,-0.00,31.49
12144193,2011,1,203812,232108,0.58,-0.81,9.95,-0.03,-0.01,-0.00,31.49
12184190,1984,1,204021,232620,0.58,-0.82,9.98,-0.03,-0.01,-0.00,31.49
12224193,2011,1,203970,232766,0.58,-0.82,9.95,-0.03,-0.01,-0.01,31.49
12264879,1984,1,204025,232839,0.58,-0.81,9.98,-0.03,-0.01,-0.00,31.53
12303193,2031,1,204029,233200,0.59,-0.81,9.96,-0.03,-0.01,-0.00,31.53
12343190,2017,1,204132,233460,0.58,-0.82,9.97,-0.03,-0.01,-0.00,31.53
12383193,2037,1,204262,233715,0.57,-0.82,9.99,-0.03,-0.01,-0.00,31.53
12423190,2021,1,204319,233949,0.59,-0.82,9.97,-0.03,-0.01,-0.00,31.53
12463193,2031,1,204421,234286,0.58,-0.81,9.96,-0.03,-0.01,-0.01,31.53
12503193,2015,1,204502,234648,0.58,-0.80,9.96,-0.03,-0.01,-0.00,31.53
12543193,2013,1,204572,234849,0.58,-0.81,9.96,-0.03,-0.01,-0.00,31.53
12583189,2015,1,204484,234996,0.56,-0.81,9.98,-0.03,-0.01,-0.01,31.53
12623193,2006,1,204494,234401,0.57,-0.83,9.95,-0.03,-0.01,-0.00,31.53
12663190,1986,1,204174,232974,0.57,-0.82,9.99,-0.03,-0.01,-0.00,31.53
12703193,2003,1,203700,232145,0.58,-0.82,9.98,-0.03,-0.01,-0.00,31.53
12743190,2007,1,203589,232138,0.57,-0.81,9.95,-0.03,-0.01,-0.00,31.53
12783193,2032,1,203684,232377,0.57,-0.80,9.96,-0.03,-0.01,-0.00,31.53
12823189,1999,1,203732,232773,0.57,-0.79,9.96,-0.03,-0.01,-0.00,31.53
12863193,2009,1,203830,233162,0.58,-0.84,9.96,-0.03,-0.01,-0.00,31.53
12903190,2014,1,203916,233325,0.59,-0.79,9.98,-0.03,-0.01,-0.01,31.53
12943192,2013,1,203970,233369,0.58,-0.81,9.96,-0.03,-0.01,-0.00,31.53
12983190,2011,1,203941,233397,0.58,-0.81,9.95,-0.03,-0.01,-0.00,31.53
13023203,2020,1,204009,233489,0.58,-0.83,9.97,-0.03,-0.01,-0.00,31.53
13063190,2011,1,204037,233764,0.58,-0.82,9.97,-0.03,-0.01,-0.00,31.53
13103193,2030,1,204172,233836,0.57,-0.81,9.95,-0.03,-0.01,-0.00,31.53
13143190,2023,1,204239,234015,0.56,-0.81,9.95,-0.03,-0.01,-0.00,31.53
13183193,2031,1,204203,234216,0.57,-0.81,9.96,-0.03,-0.01,-0.00,31.53
13223190,1842,1,204357,234339,0.60,-0.82,9.98,-0.03,-0.01,-0.00,31.53
13263193,1761,1,204429,234483,0.57,-0.82,9.97,-0.03,-0.01,-0.00,31.53
13303877,1740,1,204382,233595,0.57,-0.81,9.95,-0.03,-0.01,-0.01,31.57
13342193,1785,1,203840,232174,0.58,-0.82,9.97,-0.03,-0.02,-0.01,31.57
13382193,1809,1,203548,231351,0.58,-0.81,9.96,-0.03,-0.01,-0.01,31.57
13422193,1822,1,203523,231111,0.57,-0.80,9.98,-0.03,-0.01,-0.00,31.57
13462190,1839,1,203503,231165,0.58,-0.81,9.95,-0.03,-0.01,-0.00,31.57
13502193,1869,1,203593,231595,0.58,-0.81,9.95,-0.03,-0.01,-0.00,31.57
13542190,1893,1,203723,232042,0.58,-0.79,9.95,-0.03,-0.01,-0.00,31.57
13582193,1918,1,203708,232439,0.59,-0.80,9.95,-0.03,-0.01,-0.01,31.57
13622190,1950,1,203684,232801,0.60,-0.81,9.95,-0.04,-0.00,-0.01,31.57
13662193,1972,1,203635,232880,0.54,-0.82,9.97,-0.03,-0.01,-0.00,31.57
13702193,2009,1,203621,232966,0.57,-0.81,9.96,-0.03,-0.01,-0.00,31.57
13742193,2003,1,203611,233134,0.57,-0.80,9.95,-0.03,-0.01,-0.00,31.57
13782190,2000,1,203694,233264,0.56,-0.82,9.97,-0.03,-0.01,-0.00,31.57
13822193,2033,1,203702,233492,0.58,-0.81,9.95,-0.03,-0.01,-0.01,31.57
13862193,2066,1,203820,233768,0.58,-0.81,9.96,-0.03,-0.01,-0.00,31.57
13902193,2061,1,203946,233937,0.57,-0.80,9.96,-0.03,-0.01,-0.00,31.57
13942189,2079,1,204064,234047,0.59,-0.81,9.96,-0.03,-0.01,-0.01,31.57
13982193,2083,1,204092,234082,0.58,-0.80,9.93,-0.03,-0.01,-0.00,31.57
14022211,2081,1,203920,232767,0.55,-0.80,9.96,-0.03,-0.01,-0.00,31.57
14062192,2096,1,203324,230941,0.58,-0.81,9.96,-0.03,-0.01,-0.00,31.57
14102190,2134,1,202959,230449,0.56,-0.82,9.96,-0.03,-0.01,-0.00,31.57
14142193,2096,1,202971,230340,0.58,-0.82,9.94,-0.03,-0.01,-0.00,31.57
14182190,2051,1,202935,230458,0.56,-0.80,9.94,-0.03,-0.01,-0.00,31.57
14222197,2080,1,202951,230825,0.57,-0.81,9.94,-0.03,-0.01,-0.01,31.57
14262193,2092,1,203075,231309,0.59,-0.81,9.96,-0.03,-0.01,-0.00,31.57
14302193,2098,1,203179,231584,0.59,-0.82,9.97,-0.03,-0.01,-0.00,31.57
14342877,2064,1,203293,231667,0.57,-0.82,9.95,-0.03,-0.01,-0.00,31.49
14383193,2074,1,203301,231871,0.57,-0.83,9.98,-0.03,-0.01,-0.00,31.49
14423190,2042,1,203377,232168,0.59,-0.80,9.96,-0.03,-0.01,-0.01,31.49
14463193,2047,1,203431,232444,0.57,-0.81,9.96,-0.03,-0.01,-0.00,31.49
14503190,2053,1,203515,232563,0.59,-0.82,9.97,-0.03,-0.01,-0.00,31.49
14543193,2035,1,203500,232929,0.57,-0.81,9.96,-0.03,-0.01,-0.01,31.49
14583193,2025,1,203529,233099,0.58,-0.81,9.95,-0.03,-0.01,-0.00,31.49
14623193,2034,1,203702,233183,0.57,-0.80,9.99,-0.03,-0.01,-0.01,31.49
14663189,2036,1,203663,233390,0.59,-0.82,9.96,-0.03,-0.01,-0.00,31.49
14703193,2035,1,203702,233577,0.58,-0.83,9.97,-0.03,-0.01,-0.00,31.49
14743190,2042,1,203812,233670,0.57,-0.82,9.94,-0.03,-0.01,-0.01,31.49
14783193,2032,1,203705,232931,0.57,-0.79,9.98,-0.03,-0.01,-0.00,31.49
14823190,2018,1,203152,231304,0.57,-0.80,9.95,-0.03,-0.01,-0.00,31.49
14863193,2021,1,202842,230357,0.58,-0.82,9.95,-0.03,-0.01,-0.00,31.49
14903189,2017,1,202667,230252,0.58,-0.81,9.94,-0.03,-0.02,-0.00,31.49
14943193,2026,1,202819,230256,0.59,-0.81,9.96,-0.03,-0.01,-0.00,31.49
14983190,2006,1,202910,230660,0.59,-0.83,9.95,-0.03,-0.01,-0.00,31.49
15021203,2099,1,203047,231141,0.59,-0.82,9.94,-0.03,-0.01,-0.00,31.49
15061193,2116,1,203155,231564,0.59,-0.81,9.96,-0.03,-0.01,-0.00,31.49
15101193,2090,1,203229,231885,0.57,-0.80,9.95,-0.04,-0.01,-0.00,31.49
15141190,2079,1,203372,232018,0.56,-0.80,9.96,-0.03,-0.01,-0.00,31.49
15181192,2072,1,203389,232363,0.59,-0.81,9.95,-0.03,-0.01,-0.00,31.49
15221190,2055,1,203556,232682,0.56,-0.80,9.95,-0.03,-0.01,-0.00,31.49
15261193,2045,1,203717,232973,0.56,-0.78,9.96,-0.03,-0.01,-0.00,31.49
15301190,2064,1,203831,233420,0.57,-0.81,9.97,-0.03,-0.01,-0.01,31.49
15341193,2086,1,204026,233634,0.58,-0.80,9.97,-0.03,-0.01,-0.00,31.49
15381876,2017,1,204134,233904,0.58,-0.82,9.96,-0.03,-0.01,-0.00,31.39
15422193,2027,1,204206,234332,0.59,-0.81,9.97,-0.03,-0.01,-0.01,31.39
15462193,2000,1,204294,234622,0.59,-0.81,9.97,-0.03,-0.01,-0.00,31.39
15502192,2004,1,204435,234735,0.59,-0.80,9.97,-0.03,-0.01,-0.00,31.39
15542190,2006,1,204388,234154,0.59,-0.80,9.93,-0.03,-0.01,-0.00,31.39
15582193,2010,1,203989,232853,0.57,-0.83,9.94,-0.03,-0.01,-0.01,31.39
15622193,2002,1,203544,232017,0.57,-0.79,9.94,-0.03,-0.01,-0.00,31.39
15662257,2006,1,203479,231737,0.59,-0.81,9.98,-0.03,-0.01,-0.01,31.39
15702192,2000,1,203361,231874,0.58,-0.81,9.95,-0.03,-0.01,-0.01,31.39
15742193,1968,1,203420,232002,0.57,-0.80,9.96,-0.03,-0.01,-0.00,31.39
15782190,1982,1,203440,232484,0.56,-0.83,9.97,-0.03,-0.01,-0.00,31.39
15822193,1977,1,203639,232694,0.58,-0.82,9.95,-0.03,-0.01,-0.01,31.39
15862193,1972,1,203639,232934,0.59,-0.80,9.95,-0.03,-0.01,-0.01,31.39
15902193,2000,1,203704,233025,0.58,-0.82,9.94,-0.03,-0.01,-0.01,31.39
15942192,2000,1,203791,233094,0.57,-0.81,9.94,-0.03,-0.01,-0.00,31.39
15982193,2004,1,203721,233301,0.58,-0.81,9.96,-0.03,-0.01,-0.00,31.39
16022190,1999,1,203942,233449,0.56,-0.81,9.94,-0.03,-0.01,-0.00,31.39
16062193,2005,1,203998,233692,0.55,-0.82,9.95,-0.03,-0.01,-0.00,31.39
16102190,1999,1,204058,233836,0.57,-0.81,9.95,-0.03,-0.01,-0.00,31.39
16142193,1982,1,204180,233916,0.58,-0.80,9.96,-0.03,-0.01,-0.01,31.39
16182190,1994,1,204149,234158,0.57,-0.83,9.96,-0.03,-0.01,-0.01,31.39
16222192,2007,1,204258,233980,0.58,-0.80,9.95,-0.03,-0.01,-0.00,31.39
16262189,2005,1,203967,232756,0.57,-0.80,9.98,-0.03,-0.01,-0.00,31.39
16302193,2005,1,203449,231205,0.57,-0.80,9.95,-0.03,-0.01,-0.01,31.39
16342190,1998,1,203142,230680,0.57,-0.86,9.95,-0.03,-0.01,-0.00,31.39
16382879,1982,1,203055,230572,0.58,-0.81,9.95,-0.03,-0.01,-0.00,31.39
16421189,2002,1,203123,230566,0.56,-0.79,9.97,-0.03,-0.01,-0.01,31.39
16461192,2025,1,203107,231013,0.59,-0.81,9.95,-0.03,-0.01,-0.00,31.39
16501190,2032,1,203282,231287,0.58,-0.81,9.94,-0.03,-0.01,-0.01,31.39
16541193,2019,1,203328,231539,0.56,-0.81,9.95,-0.03,-0.01,-0.00,31.39
16581190,2007,1,203406,231708,0.58,-0.80,9.97,-0.03,-0.01,-0.00,31.39
16621192,1995,1,203445,231968,0.60,-0.80,9.96,-0.03,-0.01,-0.00,31.39
16661189,2001,1,203578,232148,0.58,-0.81,9.95,-0.03,-0.01,-0.01,31.39
16701193,1989,1,203553,232433,0.57,-0.81,9.96,-0.03,-0.01,-0.00,31.39
16741190,1967,1,203714,232537,0.59,-0.81,9.97,-0.03,-0.01,-0.00,31.39
16781193,2022,1,203797,232800,0.58,-0.80,9.96,-0.03,-0.01,-0.00,31.39
16821190,2004,1,203868,233068,0.58,-0.81,9.96,-0.03,-0.01,-0.00,31.39
16861192,2031,1,203997,233250,0.58,-0.80,9.95,-0.03,-0.01,-0.01,31.39
16901189,2029,1,203987,233503,0.58,-0.81,9.95,-0.03,-0.01,-0.00,31.39
16941193,2029,1,204037,233717,0.58,-0.81,9.98,-0.03,-0.01,-0.01,31.39
16981192,2000,1,203988,232880,0.58,-0.80,9.98,-0.03,-0.01,-0.00,31.39
17021204,1993,1,203520,230921,0.57,-0.81,9.97,-0.03,-0.01,-0.01,31.39
17061192,2007,1,202995,229684,0.57,-0.82,10.00,-0.03,-0.01,-0.00,31.39
17101193,2018,1,202768,229447,0.57,-0.80,9.96,-0.03,-0.01,-0.00,31.39
17141189,2026,1,202654,229460,0.58,-0.81,9.96,-0.03,-0.01,-0.01,31.39
17181193,2019,1,202685,229790,0.56,-0.82,9.96,-0.03,-0.01,-0.00,31.39
17221190,2014,1,202830,230238,0.58,-0.81,9.96,-0.03,-0.01,-0.00,31.39
17261193,2015,1,202995,230418,0.57,-0.82,9.96,-0.03,-0.01,-0.00,31.39
17301198,2017,1,203033,230572,0.59,-0.82,9.97,-0.03,-0.01,-0.00,31.39
17341193,2015,1,203050,230748,0.57,-0.81,9.94,-0.03,-0.01,-0.00,31.39
17381190,2005,1,203167,230915,0.56,-0.80,9.99,-0.03,-0.01,-0.00,31.39
17421879,1999,1,203107,231316,0.57,-0.82,9.95,-0.03,-0.01,-0.00,31.43
17460190,2077,1,203360,231604,0.59,-0.81,9.95,-0.03,-0.01,-0.00,31.43
17500231,2062,1,203472,231894,0.58,-0.80,9.98,-0.03,-0.01,-0.00,31.43
17540189,2074,1,203585,232117,0.57,-0.81,9.94,-0.03,-0.01,-0.00,31.43
17580193,2077,1,203706,232196,0.58,-0.81,9.96,-0.03,-0.01,-0.00,31.43
17620190,2100,1,203809,232406,0.57,-0.81,9.96,-0.03,-0.01,-0.00,31.43
17660193,2074,1,203775,232808,0.58,-0.81,9.97,-0.03,-0.01,-0.01,31.43
17700193,2069,1,203955,233123,0.59,-0.82,9.98,-0.03,-0.01,-0.00,31.43
17740193,2045,1,204006,233374,0.57,-0.80,9.97,-0.03,-0.01,-0.00,31.43
17780189,2054,1,203930,232385,0.57,-0.80,9.98,-0.03,-0.01,-0.00,31.43
17820193,2064,1,203367,230626,0.57,-0.81,9.95,-0.03,-0.01,-0.00,31.43
17860190,2055,1,202967,229855,0.57,-0.79,9.97,-0.03,-0.01,-0.00,31.43
17900193,2035,1,202888,229834,0.57,-0.80,9.97,-0.03,-0.01,-0.00,31.43
17940190,2041,1,202832,229968,0.61,-0.80,9.96,-0.03,-0.01,-0.00,31.43
17980193,2029,1,202956,230262,0.57,-0.82,9.93,-0.03,-0.01,-0.00,31.43
18020189,2064,1,203066,230800,0.57,-0.80,9.96,-0.03,-0.01,-0.00,31.43
18060193,2055,1,203269,231305,0.57,-0.82,9.96,-0.03,-0.01,-0.00,31.43
18100190,2061,1,203398,231609,0.59,-0.81,9.96,-0.03,-0.01,-0.01,31.43
18140193,2043,1,203430,231877,0.58,-0.80,9.96,-0.03,-0.01,-0.00,31.43
18180190,2039,1,203510,232175,0.58,-0.82,9.96,-0.03,-0.01,-0.01,31.43
18220193,2064,1,203686,232609,0.56,-0.81,9.97,-0.03,-0.01,-0.00,31.43
18260190,2032,1,203822,232942,0.60,-0.81,9.97,-0.03,-0.01,-0.00,31.43
18300192,2032,1,203908,233289,0.60,-0.81,9.96,-0.03,-0.01,-0.00,31.43
18340190,2039,1,204038,233590,0.57,-0.81,9.95,-0.03,-0.01,-0.00,31.43
18380193,2027,1,204150,233875,0.60,-0.80,9.98,-0.03,-0.01,-0.00,31.43
18420189,2016,1,204231,234188,0.56,-0.80,9.96,-0.03,-0.01,-0.00,31.43
18460879,2005,1,204354,234482,0.57,-0.80,9.96,-0.03,-0.01,-0.00,31.39
18501189,2005,1,204450,234648,0.59,-0.80,9.98,-0.03,-0.01,-0.00,31.39
18541193,2000,1,204344,233712,0.56,-0.81,9.95,-0.03,-0.01,-0.00,31.39
18581190,1997,1,203874,232218,0.60,-0.80,9.94,-0.03,-0.01,-0.01,31.39
18621193,2000,1,203583,231405,0.58,-0.81,9.96,-0.03,-0.01,-0.01,31.39
18661193,1981,1,203422,231387,0.58,-0.82,9.96,-0.03,-0.01,-0.01,31.39
18701193,1984,1,203451,231493,0.57,-0.82,9.96,-0.03,-0.01,-0.01,31.39
18741193,2018,1,203579,231951,0.57,-0.81,9.95,-0.03,-0.01,-0.01,31.39
18781193,2006,1,203800,232372,0.57,-0.82,9.98,-0.03,-0.01,-0.00,31.39
18821189,1999,1,203888,232627,0.58,-0.79,9.96,-0.03,-0.01,-0.00,31.39
18861193,2019,1,203986,232655,0.57,-0.83,9.95,-0.03,-0.01,-0.00,31.39
18901190,2010,1,204012,232880,0.56,-0.81,9.97,-0.03,-0.01,-0.00,31.39
18941193,1986,1,204045,233054,0.57,-0.80,9.97,-0.03,-0.01,-0.01,31.39
18981190,1999,1,204061,233255,0.57,-0.80,9.97,-0.03,-0.01,-0.01,31.39
19021203,1974,1,204109,233421,0.57,-0.82,9.97,-0.03,-0.01,-0.00,31.39
19061190,1980,1,204125,233593,0.59,-0.82,9.94,-0.03,-0.01,-0.00,31.39
19101193,1987,1,204200,233751,0.57,-0.83,9.97,-0.03,-0.01,-0.00,31.39
19141202,2000,1,204273,233917,0.57,-0.79,9.95,-0.03,-0.01,-0.00,31.39
19181193,2000,1,204342,234159,0.58,-0.81,9.96,-0.03,-0.01,-0.00,31.39
19221189,1983,1,204337,233752,0.56,-0.81,9.96,-0.03,-0.01,-0.01,31.39
19261193,1978,1,203922,232155,0.59,-0.81,9.96,-0.03,-0.01,-0.00,31.39
19301190,2002,1,203363,230852,0.58,-0.80,9.96,-0.03,-0.01,-0.00,31.39
19341193,1994,1,203120,230510,0.57,-0.80,9.95,-0.03,-0.01,-0.00,31.39
19381190,1999,1,203157,230558,0.57,-0.80,9.93,-0.03,-0.01,-0.00,31.39
19421193,1984,1,203191,230854,0.57,-0.83,9.98,-0.03,-0.01,-0.00,31.39
19461877,1991,1,203398,231348,0.56,-0.81,9.95,-0.03,-0.01,-0.00,31.39
19500193,2017,1,203526,231637,0.57,-0.82,9.96,-0.03,-0.01,-0.00,31.39
19540190,2006,1,203567,231791,0.58,-0.82,9.97,-0.03,-0.01,-0.00,31.39
19581193,1995,1,203617,231864,0.57,-0.81,9.97,-0.03,-0.01,-0.00,31.39
19621189,1994,1,203618,232065,0.58,-0.81,9.96,-0.03,-0.01,-0.00,31.39
19661193,1996,1,203730,232312,0.58,-0.83,9.97,-0.03,-0.01,-0.00,31.39
19701190,1991,1,203831,232617,0.57,-0.80,9.96,-0.03,-0.01,-0.00,31.39
19741193,2003,1,203890,232893,0.59,-0.79,9.97,-0.03,-0.01,-0.01,31.39
19779192,2096,1,203988,232994,0.57,-0.82,9.97,-0.03,-0.01,-0.00,31.39
19819193,2086,1,204040,233131,0.58,-0.80,9.97,-0.03,-0.01,-0.00,31.39
19859190,2096,1,204111,233312,0.58,-0.82,9.96,-0.03,-0.01,-0.00,31.39
19899192,2074,1,204170,233529,0.58,-0.81,9.99,-0.03,-0.01,-0.00,31.39
19939190,2065,1,204208,232883,0.57,-0.79,9.96,-0.03,-0.01,-0.00,31.39
19979193,2066,1,203695,230844,0.58,-0.83,9.95,-0.03,-0.01,-0.00,31.39
20019190,2069,1,203201,229503,0.57,-0.81,9.97,-0.03,-0.01,-0.00,31.39
20059193,2079,1,202978,229222,0.57,-0.82,9.96,-0.03,-0.01,-0.01,31.39
20099193,2078,1,202978,229384,0.59,-0.79,9.96,-0.03,-0.01,-0.00,31.39
20139193,2096,1,203014,229590,0.57,-0.82,9.96,-0.03,-0.01,-0.01,31.39
20179193,2035,1,203162,230163,0.56,-0.81,9.97,-0.03,-0.01,-0.00,31.39
20219193,2055,1,203340,230551,0.59,-0.81,9.96,-0.03,-0.01,-0.00,31.39
20259190,2065,1,203431,230709,0.57,-0.80,9.97,-0.03,-0.01,-0.01,31.39
20299193,2074,1,203432,230704,0.56,-0.84,9.96,-0.03,-0.01,-0.00,31.39
20339190,2067,1,203412,230653,0.58,-0.80,9.96,-0.03,-0.01,-0.00,31.39
20379192,2062,1,203446,230951,0.57,-0.81,9.95,-0.04,-0.01,-0.01,31.39
20419193,2079,1,203549,231339,0.57,-0.81,9.96,-0.03,-0.01,-0.00,31.39
20459193,2043,1,203636,231602,0.58,-0.83,9.95,-0.03,-0.01,-0.00,31.39
20499876,1994,1,203706,231921,0.58,-0.81,9.96,-0.03,-0.01,-0.01,31.39
20540193,2032,1,203828,232206,0.58,-0.79,9.95,-0.03,-0.01,-0.00,31.39
20579196,2064,1,203906,232461,0.57,-0.83,9.95,-0.03,-0.01,-0.01,31.39
20619193,2033,1,203992,232728,0.58,-0.83,9.97,-0.03,-0.01,-0.01,31.39
20659193,2033,1,204056,232582,0.59,-0.81,9.95,-0.03,-0.01,-0.00,31.39
20699192,2041,1,203693,230838,0.56,-0.82,9.97,-0.03,-0.01,-0.01,31.39
20739193,2067,1,203102,229140,0.58,-0.79,9.94,-0.03,-0.01,-0.00,31.39
20779221,2038,1,202720,228706,0.57,-0.80,9.99,-0.03,-0.01,-0.00,31.39
20819190,2054,1,202640,228704,0.57,-0.79,9.98,-0.03,-0.01,-0.00,31.39
20859193,2025,1,202735,228880,0.57,-0.79,9.95,-0.03,-0.01,-0.00,31.39
20899190,2038,1,202868,229331,0.59,-0.80,9.95,-0.03,-0.01,-0.00,31.39
20939193,2034,1,203027,229777,0.56,-0.80,9.97,-0.03,-0.01,-0.00,31.39
20979204,2000,1,203157,230011,0.58,-0.81,9.95,-0.03,-0.01,-0.00,31.39
21019193,2030,1,203225,230148,0.59,-0.83,9.96,-0.03,-0.01,-0.00,31.39
21059190,2042,1,203246,230358,0.57,-0.81,9.95,-0.03,-0.01,-0.01,31.39
21099193,2032,1,203374,230584,0.57,-0.80,10.00,-0.03,-0.01,-0.00,31.39
21139189,2005,1,203468,230860,0.58,-0.82,9.97,-0.03,-0.01,-0.00,31.39
21179193,2057,1,203557,231163,0.60,-0.83,9.97,-0.03,-0.01,-0.00,31.39
21219189,2039,1,203753,231501,0.57,-0.80,9.98,-0.03,-0.01,-0.01,31.39
21259192,2037,1,203796,231790,0.57,-0.82,9.95,-0.03,-0.01,-0.01,31.39
21299193,2038,1,203894,232052,0.58,-0.81,9.95,-0.03,-0.01,-0.00,31.39
21339193,2037,1,204016,232418,0.57,-0.81,9.96,-0.03,-0.01,-0.01,31.39
21379193,2041,1,204074,232691,0.57,-0.82,9.97,-0.03,-0.01,-0.01,31.39
21419193,2047,1,204169,232675,0.58,-0.81,9.98,-0.03,-0.01,-0.00,31.39
21459190,2033,1,203920,231198,0.57,-0.81,9.96,-0.03,-0.01,-0.00,31.39
21499192,2030,1,203314,229475,0.58,-0.81,9.96,-0.03,-0.01,-0.00,31.39
21539877,2009,1,202959,228828,0.58,-0.81,9.95,-0.03,-0.01,-0.00,31.41
21580193,2032,1,202905,228740,0.57,-0.82,9.94,-0.03,-0.01,-0.00,31.41
21619190,2032,1,202855,228982,0.57,-0.82,9.97,-0.03,-0.01,-0.01,31.41
21659193,2007,1,202978,229539,0.58,-0.81,9.97,-0.03,-0.01,-0.01,31.41
21699192,2001,1,203126,230051,0.55,-0.80,9.92,-0.03,-0.01,-0.00,31.41
21739192,2011,1,203290,230313,0.56,-0.80,9.97,-0.03,-0.01,-0.01,31.41
21779190,2017,1,203350,230541,0.57,-0.81,9.97,-0.03,-0.01,-0.00,31.41
21819193,2021,1,203487,230871,0.59,-0.81,9.96,-0.03,-0.01,-0.00,31.41
21859190,2002,1,203555,231168,0.59,-0.82,9.94,-0.03,-0.01,-0.00,31.41
21899192,1999,1,203728,231565,0.57,-0.80,9.95,-0.03,-0.01,-0.01,31.41
21939189,2007,1,203758,231811,0.56,-0.81,9.96,-0.03,-0.01,-0.01,31.41
21979192,2009,1,203848,232023,0.58,-0.82,9.96,-0.03,-0.01,-0.00,31.41
22019190,2021,1,203929,232292,0.58,-0.82,9.96,-0.03,-0.01,-0.00,31.41
22059192,2020,1,204040,232514,0.57,-0.83,9.98,-0.03,-0.01,-0.00,31.41
22099190,1986,1,204086,232743,0.57,-0.83,9.96,-0.03,-0.01,-0.00,31.41
22139193,2000,1,204175,232959,0.56,-0.78,9.96,-0.03,-0.01,-0.00,31.41
22179190,2002,1,204154,232127,0.58,-0.81,9.97,-0.03,-0.01,-0.00,31.41
22219192,1995,1,203673,230280,0.57,-0.82,9.94,-0.03,-0.01,-0.01,31.41
22259192,1997,1,203166,229275,0.57,-0.81,9.93,-0.03,-0.01,-0.00,31.41
22299193,1988,1,203087,229155,0.58,-0.82,9.94,-0.03,-0.01,-0.01,31.41
22339193,2015,1,203053,229361,0.57,-0.81,9.97,-0.03,-0.01,-0.01,31.41
22379192,2010,1,203156,229695,0.58,-0.80,9.96,-0.03,-0.01,-0.00,31.41
22419211,2013,1,203361,230130,0.57,-0.80,9.95,-0.03,-0.01,-0.00,31.41
22459193,1991,1,203524,230344,0.58,-0.80,9.97,-0.03,-0.01,-0.01,31.41
22499190,2018,1,203576,230512,0.58,-0.82,9.97,-0.03,-0.01,-0.00,31.41
22539193,1999,1,203617,230692,0.58,-0.81,9.96,-0.03,-0.01,-0.00,31.41
22579876,1987,1,203660,230873,0.57,-0.82,9.97,-0.03,-0.01,-0.00,31.29
22618193,2078,1,203720,231056,0.57,-0.79,9.96,-0.03,-0.01,-0.00,31.29
22658189,2063,1,203800,231308,0.56,-0.80,9.97,-0.03,-0.01,-0.00,31.29
22698192,2069,1,203831,231544,0.58,-0.81,9.96,-0.03,-0.01,-0.01,31.29
22738192,2062,1,203923,231699,0.57,-0.82,9.96,-0.03,-0.01,-0.01,31.29
22778193,2058,1,203918,231803,0.59,-0.81,9.96,-0.03,-0.01,-0.00,31.29
22818190,2054,1,203942,232008,0.59,-0.79,9.94,-0.03,-0.01,-0.00,31.29
22858193,2045,1,203926,231457,0.57,-0.82,9.95,-0.03,-0.01,-0.00,31.29
22898189,2059,1,203446,229488,0.56,-0.81,9.94,-0.03,-0.01,-0.00,31.29
22938192,2059,1,202885,228199,0.57,-0.83,9.97,-0.03,-0.01,-0.00,31.29
22978190,2046,1,202664,228031,0.57,-0.81,9.97,-0.03,-0.01,-0.00,31.29
23018193,2029,1,202677,228103,0.57,-0.80,9.96,-0.03,-0.01,-0.00,31.29
23058189,2021,1,202671,228384,0.57,-0.81,9.94,-0.03,-0.01,-0.00,31.29
23098193,2047,1,202864,228955,0.59,-0.79,9.97,-0.03,-0.01,-0.00,31.29
23138190,2061,1,203004,229267,0.60,-0.80,9.97,-0.03,-0.01,-0.00,31.29
23178192,2039,1,203081,229435,0.60,-0.83,9.94,-0.03,-0.01,-0.00,31.29
23218189,2042,1,203148,229537,0.58,-0.81,9.97,-0.03,-0.01,-0.00,31.29
23258193,2032,1,203174,229640,0.58,-0.81,9.97,-0.03,-0.01,-0.01,31.29
23298193,2055,1,203249,229744,0.58,-0.81,9.96,-0.03,-0.01,-0.00,31.29
23338193,2027,1,203282,229910,0.58,-0.80,9.98,-0.03,-0.01,-0.00,31.29
23378190,2043,1,203345,230157,0.57,-0.82,9.97,-0.03,-0.01,-0.00,31.29
23418193,2047,1,203478,230313,0.57,-0.80,9.96,-0.03,-0.01,-0.00,31.29
23458189,2010,1,203525,230519,0.57,-0.80,9.96,-0.03,-0.01,-0.00,31.29
23498193,2003,1,203650,230720,0.57,-0.80,9.96,-0.03,-0.01,-0.00,31.29
23538189,2027,1,203761,230902,0.57,-0.81,9.95,-0.03,-0.01,-0.00,31.29
23578192,2006,1,203735,230162,0.59,-0.82,9.96,-0.03,-0.01,-0.00,31.29
23618877,1984,1,203186,227969,0.59,-0.82,9.95,-0.03,-0.01,-0.00,31.27
23659193,1999,1,202564,226761,0.58,-0.82,9.94,-0.03,-0.01,-0.01,31.27
23699193,1986,1,202350,226545,0.58,-0.80,9.95,-0.03,-0.01,-0.00,31.27
23739193,1987,1,202277,226544,0.56,-0.80,9.97,-0.03,-0.01,-0.00,31.27
23779189,1999,1,202287,226695,0.57,-0.81,9.95,-0.03,-0.01,-0.00,31.27
23819193,2003,1,202464,227281,0.58,-0.81,9.95,-0.03,-0.01,-0.01,31.27
23859193,1990,1,202594,227730,0.57,-0.82,9.97,-0.03,-0.01,-0.01,31.27
23899192,1985,1,202675,227934,0.58,-0.79,9.96,-0.03,-0.01,-0.01,31.27
23939192,2000,1,202705,228324,0.56,-0.80,9.96,-0.03,-0.01,-0.00,31.27
23979193,2000,1,202841,228753,0.57,-0.83,9.98,-0.03,-0.01,-0.00,31.27
24019192,1990,1,202990,229164,0.57,-0.81,9.95,-0.03,-0.01,-0.00,31.27
24059199,1985,1,203133,229566,0.57,-0.81,9.94,-0.03,-0.01,-0.00,31.27
24099192,1987,1,203256,229817,0.58,-0.82,9.96,-0.03,-0.01,-0.00,31.27
24139192,1978,1,203339,230129,0.58,-0.78,9.96,-0.03,-0.01,-0.00,31.27
24179193,2000,1,203454,230478,0.58,-0.82,9.97,-0.03,-0.01,-0.00,31.27
24219193,1982,1,203647,230886,0.56,-0.80,9.94,-0.03,-0.01,-0.00,31.27
24259195,1995,1,203715,231062,0.56,-0.80,9.96,-0.03,-0.01,-0.00,31.27
24299193,1983,1,203781,230933,0.57,-0.81,9.95,-0.03,-0.01,-0.00,31.27
24339193,1982,1,203483,229212,0.57,-0.81,9.98,-0.03,-0.01,-0.00,31.27
24377193,2077,1,202892,227591,0.58,-0.82,9.95,-0.03,-0.01,-0.00,31.27
24417192,2073,1,202624,227228,0.57,-0.81,9.96,-0.03,-0.01,-0.00,31.27
24457193,2074,1,202574,227252,0.60,-0.80,9.96,-0.03,-0.01,-0.00,31.27
24497189,2085,1,202585,227421,0.58,-0.81,9.96,-0.03,-0.01,-0.00,31.27
24537193,2085,1,202733,228029,0.56,-0.79,9.95,-0.03,-0.01,-0.00,31.27
24577192,2083,1,203014,228654,0.57,-0.80,9.96,-0.03,-0.01,-0.00,31.27
24617193,2078,1,203144,228733,0.57,-0.81,9.94,-0.03,-0.01,-0.00,31.27
24657879,2007,1,203202,228973,0.59,-0.81,9.98,-0.03,-0.01,-0.00,31.21
24697193,2047,1,203333,229321,0.57,-0.80,9.94,-0.03,-0.01,-0.01,31.21
24737190,2043,1,203441,229661,0.57,-0.82,9.95,-0.03,-0.01,-0.00,31.21
24777198,2043,1,203553,230108,0.56,-0.81,9.96,-0.03,-0.01,-0.00,31.21
24817193,2043,1,203686,230464,0.58,-0.82,9.94,-0.03,-0.01,-0.00,31.21
24857193,2091,1,203784,230808,0.58,-0.81,9.95,-0.03,-0.01,-0.00,31.21
24897193,2065,1,203884,231138,0.56,-0.80,9.96,-0.03,-0.01,-0.01,31.21
24937193,2077,1,203987,231447,0.60,-0.80,9.97,-0.03,-0.01,-0.01,31.21
24977189,2081,1,204087,231659,0.58,-0.80,9.96,-0.03,-0.01,-0.00,31.21
25017193,2091,1,204161,231797,0.55,-0.80,9.94,-0.03,-0.01,-0.00,31.21
25057189,2082,1,204038,230729,0.59,-0.82,9.94,-0.03,-0.01,-0.00,31.21
25097193,2058,1,203473,228834,0.60,-0.82,9.95,-0.03,-0.01,-0.01,31.21
25137190,2059,1,202932,228162,0.57,-0.81,9.96,-0.03,-0.01,-0.00,31.21
25177193,2064,1,202892,228067,0.55,-0.80,9.95,-0.03,-0.01,-0.00,31.21
25217189,2047,1,202911,228101,0.58,-0.82,9.96,-0.03,-0.01,-0.00,31.21
25257192,2063,1,202982,228546,0.57,-0.82,9.95,-0.03,-0.01,-0.00,31.21
25297190,2080,1,203113,229045,0.57,-0.82,9.97,-0.03,-0.01,-0.01,31.21
25337193,2032,1,203254,229322,0.58,-0.80,9.95,-0.03,-0.01,-0.00,31.21
25377189,2013,1,203292,229390,0.59,-0.81,9.97,-0.03,-0.01,-0.00,31.21
25417193,2017,1,203309,229423,0.57,-0.80,9.95,-0.03,-0.01,-0.01,31.21
25457190,2019,1,203331,229588,0.57,-0.81,9.96,-0.03,-0.01,-0.00,31.21
25497193,2015,1,203427,229934,0.57,-0.80,9.97,-0.03,-0.01,-0.01,31.21
25537190,2029,1,203527,230145,0.56,-0.80,9.99,-0.03,-0.01,-0.00,31.21
25577193,2029,1,203626,230300,0.57,-0.82,10.00,-0.03,-0.01,-0.00,31.21
25617189,2017,1,203714,230530,0.58,-0.82,9.97,-0.03,-0.01,-0.00,31.21
25657193,2035,1,203801,230757,0.59,-0.79,9.95,-0.03,-0.01,-0.01,31.21
25697912,1986,1,203834,230905,0.58,-0.80,9.96,-0.03,-0.01,-0.01,31.19
25738193,1967,1,203868,230339,0.57,-0.83,9.96,-0.03,-0.01,-0.00,31.19
25778192,1982,1,203376,228005,0.59,-0.82,9.93,-0.03,-0.01,-0.00,31.19
25818192,1984,1,202656,226248,0.58,-0.81,9.96,-0.03,-0.01,-0.00,31.19
25858192,1981,1,202381,226008,0.56,-0.82,9.96,-0.03,-0.01,-0.01,31.19
25898230,2006,1,202381,226154,0.58,-0.81,9.94,-0.03,-0.01,-0.00,31.19
25938192,1999,1,202536,226561,0.57,-0.83,9.97,-0.03,-0.01,-0.01,31.19
25978192,1984,1,202683,227067,0.57,-0.80,9.95,-0.03,-0.01,-0.01,31.19
26018190,2002,1,202799,227132,0.57,-0.80,9.97,-0.03,-0.01,-0.00,31.19
26058193,1979,1,202736,226969,0.57,-0.82,9.95,-0.03,-0.01,-0.00,31.19
26098212,1991,1,202795,227138,0.58,-0.79,9.95,-0.03,-0.01,-0.00,31.19
26138193,2000,1,202831,227422,0.59,-0.79,9.96,-0.03,-0.01,-0.00,31.19
26178190,2000,1,202855,227733,0.58,-0.82,9.97,-0.03,-0.01,-0.00,31.19
26218193,1986,1,203028,228146,0.57,-0.82,9.98,-0.03,-0.01,-0.00,31.19
26258192,1991,1,203117,228287,0.57,-0.80,9.97,-0.03,-0.01,-0.01,31.19
26298193,1977,1,203141,228439,0.59,-0.82,9.95,-0.03,-0.01,-0.00,31.19
26338192,1943,1,203214,228811,0.59,-0.82,9.97,-0.03,-0.01,-0.01,31.19
26378193,1988,1,203337,229160,0.57,-0.80,9.94,-0.03,-0.01,-0.01,31.19
26418190,1995,1,203394,229455,0.57,-0.81,9.95,-0.03,-0.01,-0.01,31.19
26458193,1986,1,203504,229669,0.57,-0.79,9.95,-0.03,-0.01,-0.00,31.19
26498193,1987,1,203364,228219,0.58,-0.80,9.94,-0.03,-0.01,-0.00,31.19
26538193,2001,1,202688,226297,0.59,-0.81,9.96,-0.03,-0.01,-0.01,31.19
26578192,1991,1,202221,225809,0.58,-0.79,9.96,-0.03,-0.01,-0.01,31.19
26618193,2000,1,202207,225863,0.57,-0.80,9.99,-0.03,-0.01,-0.00,31.19
26658189,1992,1,202217,225984,0.57,-0.81,9.96,-0.03,-0.01,-0.00,31.19
26698879,1979,1,202373,226521,0.58,-0.81,9.98,-0.03,-0.01,-0.01,31.13
26737192,1972,1,202629,227202,0.57,-0.81,9.97,-0.03,-0.01,-0.00,31.13
26777192,2000,1,202768,227468,0.57,-0.82,9.95,-0.03,-0.01,-0.00,31.13
26817190,2010,1,202823,227625,0.57,-0.82,9.97,-0.03,-0.01,-0.00,31.13
26857192,1983,1,202923,227913,0.58,-0.81,9.98,-0.03,-0.01,-0.00,31.13
26897190,2022,1,203014,228161,0.57,-0.80,9.96,-0.03,-0.01,-0.00,31.13
26937192,2000,1,203142,228456,0.57,-0.81,9.94,-0.03,-0.01,-0.00,31.13
26977190,2000,1,203220,228708,0.58,-0.82,9.96,-0.03,-0.01,-0.00,31.13
27017192,2001,1,203311,228939,0.58,-0.79,9.94,-0.03,-0.01,-0.00,31.13
27057190,2018,1,203431,229285,0.58,-0.82,9.93,-0.03,-0.01,-0.01,31.13
27097192,2031,1,203565,229593,0.57,-0.82,9.96,-0.03,-0.01,-0.00,31.13
27137190,2031,1,203652,229861,0.57,-0.81,9.96,-0.03,-0.01,-0.00,31.13
27177192,2018,1,203820,230110,0.57,-0.82,9.99,-0.03,-0.01,-0.00,31.13
27217190,2019,1,203961,230269,0.58,-0.79,9.95,-0.03,-0.01,-0.00,31.13
27257192,1994,1,203825,229235,0.57,-0.82,9.97,-0.03,-0.01,-0.00,31.13
27297190,1983,1,203259,227264,0.58,-0.81,9.95,-0.03,-0.01,-0.00,31.13
27337206,1990,1,202770,226479,0.59,-0.80,9.95,-0.03,-0.01,-0.00,31.13
27377190,1994,1,202623,226457,0.57,-0.83,9.96,-0.03,-0.01,-0.01,31.13
27417192,2000,1,202636,226595,0.57,-0.81,9.97,-0.03,-0.01,-0.00,31.13
27457193,2002,1,202671,226934,0.58,-0.82,9.94,-0.03,-0.01,-0.01,31.13
27497193,1986,1,202830,227557,0.60,-0.81,9.92,-0.03,-0.01,-0.00,31.13
27537213,2017,1,203033,227984,0.57,-0.81,9.96,-0.03,-0.01,-0.00,31.13
27577193,2013,1,203132,228273,0.60,-0.81,9.96,-0.03,-0.01,-0.00,31.13
27617190,1993,1,203223,228556,0.57,-0.83,9.97,-0.03,-0.01,-0.00,31.13
27657193,2025,1,203358,228914,0.57,-0.83,9.95,-0.03,-0.01,-0.01,31.13
27697192,2008,1,203467,229340,0.58,-0.82,9.96,-0.03,-0.01,-0.00,31.13
27737903,2000,1,203520,229716,0.58,-0.80,9.96,-0.03,-0.01,-0.00,31.25
27776189,2058,1,203643,230015,0.58,-0.80,9.97,-0.03,-0.01,-0.01,31.25
27816193,2047,1,203750,230408,0.58,-0.81,9.96,-0.03,-0.01,-0.01,31.25
27856192,2047,1,203832,230694,0.59,-0.80,9.94,-0.03,-0.01,-0.00,31.25
27896192,2032,1,204013,231030,0.57,-0.82,9.94,-0.03,-0.01,-0.00,31.25
27936192,2019,1,204103,231409,0.58,-0.81,9.97,-0.03,-0.01,-0.01,31.25
27976193,2010,1,204223,231700,0.59,-0.79,9.95,-0.03,-0.01,-0.01,31.25
28016193,2001,1,204299,231870,0.59,-0.80,9.96,-0.03,-0.01,-0.00,31.25
28056193,2007,1,204204,230761,0.57,-0.80,9.96,-0.03,-0.01,-0.00,31.25
28096189,2019,1,203682,229227,0.59,-0.80,9.96,-0.03,-0.01,-0.00,31.25
28136193,2018,1,203373,228714,0.57,-0.80,9.96,-0.03,-0.01,-0.00,31.25
28176190,2020,1,203348,228776,0.57,-0.81,9.94,-0.03,-0.01,-0.00,31.25
28216193,2031,1,203320,228747,0.56,-0.81,9.95,-0.03,-0.01,-0.01,31.25
28256193,2023,1,203423,229190,0.58,-0.80,9.94,-0.03,-0.01,-0.00,31.25
28296193,2033,1,203609,229685,0.59,-0.82,9.96,-0.03,-0.01,-0.00,31.25
28336190,2013,1,203726,229870,0.57,-0.82,9.96,-0.03,-0.01,-0.00,31.25
28376193,2002,1,203765,229998,0.58,-0.83,9.97,-0.03,-0.01,-0.00,31.25
28416190,2036,1,203830,230279,0.58,-0.84,9.97,-0.03,-0.01,-0.00,31.25
28456193,2033,1,203944,230382,0.58,-0.81,9.95,-0.03,-0.01,-0.00,31.25
28496190,2020,1,204048,230528,0.57,-0.82,9.97,-0.03,-0.01,-0.00,31.25
28536193,2018,1,204132,230817,0.57,-0.80,9.94,-0.03,-0.01,-0.00,31.25
28576189,2000,1,204219,231078,0.60,-0.81,9.95,-0.03,-0.01,-0.00,31.25
28616193,2011,1,204311,231257,0.59,-0.82,9.97,-0.03,-0.01,-0.00,31.25
28656190,2005,1,204387,231499,0.57,-0.79,9.96,-0.03,-0.01,-0.00,31.25
28696193,2013,1,204455,231713,0.59,-0.79,9.97,-0.03,-0.01,-0.00,31.25
28736190,2019,1,204453,231835,0.58,-0.83,9.95,-0.03,-0.01,-0.00,31.25
28776879,1985,1,204262,230749,0.55,-0.79,9.99,-0.03,-0.01,-0.01,31.19
28817192,2004,1,203673,228964,0.59,-0.81,9.96,-0.03,-0.01,-0.00,31.19
28857192,1997,1,203296,228283,0.57,-0.81,9.95,-0.03,-0.01,-0.00,31.19
28897193,1984,1,203155,228219,0.57,-0.82,9.96,-0.03,-0.01,-0.01,31.19
28937193,1994,1,203148,228297,0.59,-0.81,9.95,-0.03,-0.01,-0.00,31.19
28977193,2001,1,203190,228825,0.57,-0.79,9.96,-0.03,-0.01,-0.00,31.19
29017192,1991,1,203462,229542,0.59,-0.82,9.94,-0.03,-0.01,-0.00,31.19
29057193,1995,1,203621,229906,0.58,-0.78,9.96,-0.03,-0.01,-0.00,31.19
29097193,1999,1,203720,230150,0.57,-0.82,9.98,-0.03,-0.01,-0.00,31.19
29137192,2000,1,203825,230439,0.60,-0.79,9.96,-0.03,-0.01,-0.00,31.19
29177196,1987,1,203924,230687,0.57,-0.80,9.96,-0.03,-0.01,-0.00,31.19
29217189,1957,1,204031,231030,0.57,-0.80,9.96,-0.03,-0.01,-0.00,31.19
29257192,2007,1,204120,231252,0.58,-0.80,9.97,-0.03,-0.01,-0.00,31.19
29297190,1995,1,204182,231502,0.60,-0.80,9.93,-0.03,-0.01,-0.00,31.19
29337193,2007,1,204300,231719,0.59,-0.80,9.95,-0.03,-0.01,-0.00,31.19
29377196,2003,1,204398,231975,0.57,-0.81,9.97,-0.03,-0.01,-0.01,31.19
29415192,2081,1,204520,232291,0.58,-0.80,9.97,-0.03,-0.01,-0.00,31.19
29455190,2070,1,204603,232574,0.57,-0.80,9.97,-0.03,-0.01,-0.01,31.19
29495193,2078,1,204712,232219,0.58,-0.80,9.94,-0.03,-0.01,-0.00,31.19
29535189,2064,1,204322,230496,0.57,-0.79,9.97,-0.03,-0.01,-0.00,31.19
29575193,2066,1,203812,229248,0.59,-0.83,9.97,-0.03,-0.01,-0.00,31.19
29615190,2042,1,203566,229044,0.57,-0.79,9.98,-0.03,-0.00,-0.00,31.19
29655192,2064,1,203500,229079,0.56,-0.82,9.97,-0.03,-0.01,-0.00,31.19
29695190,2074,1,203480,229128,0.58,-0.81,9.98,-0.03,-0.01,-0.00,31.19
29735193,2070,1,203541,229443,0.57,-0.83,9.95,-0.03,-0.01,-0.00,31.19
29775192,2057,1,203656,229722,0.59,-0.79,9.96,-0.03,-0.01,-0.01,31.19
29815879,1952,1,203718,229785,0.58,-0.80,9.96,-0.03,-0.01,-0.00,31.11
29856189,1983,1,203716,229914,0.57,-0.82,9.97,-0.03,-0.01,-0.00,31.11
29896200,1984,1,203813,230282,0.60,-0.81,9.97,-0.03,-0.01,-0.00,31.11
29936189,2003,1,203925,230645,0.57,-0.80,9.97,-0.03,-0.01,-0.00,31.11
29976193,2010,1,203997,230954,0.59,-0.82,9.93,-0.03,-0.01,-0.00,31.11
30016193,2002,1,204069,231293,0.58,-0.83,9.94,-0.03,-0.01,-0.00,31.11
30056192,2003,1,204123,231552,0.58,-0.81,9.97,-0.03,-0.01,-0.00,31.11
30096192,2033,1,204184,231835,0.57,-0.81,9.97,-0.03,-0.01,-0.01,31.11
30136193,2005,1,204301,232248,0.58,-0.80,9.97,-0.03,-0.01,-0.00,31.11
30176189,2006,1,204448,232569,0.57,-0.81,9.96,-0.03,-0.01,-0.00,31.11
30216192,1991,1,204583,232800,0.58,-0.82,9.98,-0.03,-0.01,-0.00,31.11
30256192,2000,1,204554,232084,0.59,-0.82,9.97,-0.03,-0.01,-0.00,31.11
30296192,1995,1,204075,230428,0.59,-0.79,9.94,-0.03,-0.01,-0.00,31.11
30336193,1996,1,203649,229648,0.57,-0.80,9.95,-0.03,-0.01,-0.01,31.11
30376193,2007,1,203527,229652,0.57,-0.80,9.96,-0.03,-0.01,-0.00,31.11
30416189,1999,1,203560,229871,0.57,-0.80,9.96,-0.03,-0.01,-0.00,31.11
30456192,2005,1,203605,230256,0.56,-0.81,9.96,-0.03,-0.01,-0.01,31.11
30496193,2000,1,203777,230766,0.56,-0.81,9.98,-0.03,-0.01,-0.01,31.11
30536192,2011,1,203984,231123,0.57,-0.81,9.97,-0.03,-0.01,-0.00,31.11
30576192,1985,1,204044,231459,0.58,-0.81,9.99,-0.03,-0.01,-0.00,31.11
30616193,1990,1,204167,231708,0.58,-0.81,9.95,-0.03,-0.01,-0.00,31.11
30656192,2000,1,204279,232051,0.61,-0.82,9.93,-0.03,-0.01,-0.00,31.11
30696192,1991,1,204408,232293,0.57,-0.82,9.94,-0.03,-0.01,-0.00,31.11
30736192,1995,1,204553,232724,0.58,-0.81,9.96,-0.03,-0.01,-0.00,31.11
30776192,1994,1,204742,233022,0.57,-0.81,9.98,-0.03,-0.01,-0.00,31.11
30816908,1969,1,204842,233372,0.58,-0.80,9.96,-0.03,-0.01,-0.00,31.33
30855193,2027,1,204951,233679,0.58,-0.81,9.97,-0.03,-0.01,-0.00,31.33
30895190,2011,1,205076,233986,0.58,-0.82,9.94,-0.03,-0.01,-0.00,31.33
30935193,2035,1,205183,234333,0.59,-0.80,9.97,-0.03,-0.01,-0.00,31.33
30975189,2011,1,205261,234197,0.56,-0.81,9.95,-0.03,-0.01,-0.01,31.33
31015193,2016,1,204985,232815,0.57,-0.80,9.96,-0.03,-0.01,-0.00,31.33
31055190,2017,1,204526,231642,0.59,-0.80,9.96,-0.03,-0.01,-0.00,31.33
31095192,2011,1,204307,231346,0.59,-0.82,9.96,-0.03,-0.01,-0.01,31.33
31135193,2009,1,204268,231504,0.58,-0.80,9.96,-0.03,-0.01,-0.00,31.33
31175193,1989,1,204315,231694,0.58,-0.83,9.97,-0.03,-0.01,-0.00,31.33
31215190,2016,1,204420,232192,0.57,-0.80,9.95,-0.03,-0.01,-0.01,31.33
31255192,2010,1,204547,232519,0.57,-0.81,9.96,-0.03,-0.01,-0.00,31.33
31295190,2021,1,204615,232579,0.57,-0.81,9.96,-0.03,-0.01,-0.00,31.33
31335193,2026,1,204629,232687,0.57,-0.81,9.99,-0.03,-0.01,-0.00,31.33
31375190,2027,1,204685,232945,0.58,-0.79,9.93,-0.03,-0.01,-0.00,31.33
31415193,2001,1,204811,233129,0.59,-0.80,9.96,-0.03,-0.01,-0.01,31.33
31455190,2000,1,204888,233369,0.58,-0.82,9.95,-0.03,-0.01,-0.00,31.33
31495193,2000,1,204932,233644,0.57,-0.80,9.95,-0.03,-0.01,-0.00,31.33
31535190,2014,1,205041,233866,0.57,-0.81,9.95,-0.03,-0.01,-0.00,31.33
31575192,2014,1,205084,234047,0.59,-0.81,9.97,-0.03,-0.01,-0.00,31.33
31615190,2030,1,205114,234172,0.57,-0.81,9.96,-0.03,-0.01,-0.00,31.33
31655192,2022,1,205213,234270,0.58,-0.81,9.96,-0.03,-0.01,-0.00,31.33
31695190,2015,1,205129,233449,0.58,-0.83,9.93,-0.03,-0.01,-0.01,31.33
31735193,2010,1,204655,231968,0.59,-0.79,9.96,-0.03,-0.01,-0.00,31.33
31775190,2007,1,204354,231347,0.56,-0.80,9.94,-0.03,-0.01,-0.00,31.33
31815193,2010,1,204267,231294,0.59,-0.80,9.96,-0.03,-0.01,-0.00,31.33
31855876,1983,1,204264,231390,0.57,-0.81,9.95,-0.03,-0.01,-0.01,31.35
31894193,2077,1,204373,231701,0.59,-0.81,9.96,-0.03,-0.01,-0.00,31.35
31934192,2077,1,204484,232117,0.57,-0.82,9.98,-0.03,-0.01,-0.00,31.35
31974193,2054,1,204601,232350,0.58,-0.81,9.95,-0.03,-0.01,-0.01,31.35
32014192,2064,1,204664,232623,0.59,-0.81,9.94,-0.03,-0.01,-0.00,31.35
32054193,2055,1,204709,232823,0.58,-0.80,9.97,-0.03,-0.01,-0.00,31.35
32094190,2065,1,204789,233073,0.58,-0.83,9.99,-0.03,-0.01,-0.00,31.35
32134193,2035,1,204883,233471,0.58,-0.81,9.97,-0.03,-0.01,-0.00,31.35
32174193,2047,1,204962,233728,0.56,-0.79,9.95,-0.03,-0.01,-0.01,31.35
32214192,2059,1,205050,233887,0.58,-0.81,9.93,-0.03,-0.01,-0.00,31.35
32254189,2064,1,205129,234183,0.58,-0.82,9.96,-0.03,-0.01,-0.00,31.35
32294192,2044,1,205257,234550,0.58,-0.82,9.94,-0.03,-0.01,-0.00,31.35
32334190,2038,1,205286,234804,0.58,-0.79,9.96,-0.03,-0.01,-0.01,31.35
32374193,2029,1,205323,234959,0.58,-0.79,9.94,-0.03,-0.01,-0.00,31.35
32414190,2014,1,205363,234202,0.58,-0.79,9.97,-0.03,-0.01,-0.00,31.35
32454212,2033,1,204882,232718,0.58,-0.80,9.95,-0.03,-0.01,-0.00,31.35
32494189,2027,1,204491,231928,0.59,-0.80,9.97,-0.03,-0.01,-0.00,31.35
32534193,2045,1,204287,231941,0.58,-0.80,9.96,-0.03,-0.00,-0.00,31.35
32574189,2057,1,204201,232017,0.56,-0.79,9.98,-0.03,-0.00,-0.01,31.35
32614192,2047,1,204203,232226,0.57,-0.83,9.97,-0.03,-0.01,-0.00,31.35
32654222,2042,1,204316,232561,0.57,-0.81,9.97,-0.03,-0.01,-0.00,31.35
32694193,2046,1,204417,232811,0.55,-0.81,9.97,-0.03,-0.01,-0.01,31.35
32734192,2032,1,204506,232945,0.57,-0.82,9.96,-0.03,-0.01,-0.00,31.35
32774193,2022,1,204593,233156,0.56,-0.82,9.98,-0.03,-0.01,-0.00,31.35
32814190,2026,1,204737,233338,0.57,-0.82,9.98,-0.03,-0.01,-0.00,31.35
32854193,2029,1,204853,233629,0.59,-0.79,9.97,-0.03,-0.01,-0.00,31.35
32894876,1991,1,204966,233951,0.59,-0.80,9.96,-0.03,-0.01,-0.01,31.25
32935193,1997,1,205020,234098,0.57,-0.80,9.95,-0.03,-0.01,-0.00,31.25
32975189,1989,1,205200,234376,0.57,-0.81,9.95,-0.03,-0.01,-0.00,31.25
33015192,1999,1,205283,234620,0.57,-0.81,9.95,-0.03,-0.01,-0.01,31.25
33055193,1984,1,205407,234822,0.57,-0.79,9.99,-0.03,-0.01,-0.01,31.25
33095193,1978,1,205495,235168,0.59,-0.82,9.93,-0.03,-0.01,-0.01,31.25
33135192,2010,1,205545,234835,0.57,-0.81,9.96,-0.03,-0.01,-0.01,31.25
33175192,1990,1,205253,233522,0.56,-0.81,9.96,-0.03,-0.01,-0.01,31.25
33215192,1987,1,204858,232713,0.59,-0.82,9.96,-0.03,-0.01,-0.01,31.25
33255193,1994,1,204675,232618,0.57,-0.80,9.95,-0.03,-0.01,-0.00,31.25
33295189,1990,1,204695,232805,0.58,-0.80,9.95,-0.03,-0.01,-0.00,31.25
33335193,1983,1,204756,233032,0.58,-0.82,9.94,-0.03,-0.01,-0.01,31.25
33375192,1997,1,204837,233445,0.57,-0.82,9.95,-0.03,-0.01,-0.00,31.25
33415192,2000,1,204962,233742,0.59,-0.81,9.95,-0.03,-0.01,-0.00,31.25
33455192,1999,1,204952,233933,0.57,-0.82,9.95,-0.03,-0.01,-0.01,31.25
33495192,1994,1,205044,234198,0.58,-0.80,9.95,-0.03,-0.01,-0.01,31.25
33535190,2010,1,205117,234446,0.59,-0.80,9.94,-0.03,-0.01,-0.01,31.25
33575193,2032,1,205224,234751,0.59,-0.80,9.96,-0.03,-0.01,-0.00,31.25
33615189,2013,1,205212,235101,0.58,-0.79,9.97,-0.03,-0.01,-0.01,31.25
33655193,2000,1,205347,235428,0.58,-0.81,9.94,-0.03,-0.01,-0.00,31.25
33694190,2029,1,205468,235630,0.55,-0.83,9.98,-0.03,-0.01,-0.00,31.25
33734192,2013,1,205609,235908,0.59,-0.81,9.98,-0.03,-0.01,-0.00,31.25
33774190,2002,1,205682,236142,0.58,-0.81,9.95,-0.03,-0.01,-0.01,31.25
33814192,2007,1,205722,236317,0.59,-0.80,9.96,-0.03,-0.01,-0.01,31.25
33854189,2003,1,205766,235749,0.57,-0.80,9.96,-0.03,-0.01,-0.00,31.25
33894192,2007,1,205426,234549,0.59,-0.83,9.95,-0.03,-0.01,-0.00,31.25
33934876,1985,1,205052,233787,0.56,-0.82,9.96,-0.03,-0.01,-0.00,31.25
33973193,2082,1,204914,233565,0.57,-0.82,9.97,-0.03,-0.01,-0.00,31.25
34013190,2090,1,204926,233564,0.58,-0.80,9.96,-0.03,-0.01,-0.00,31.25
34053192,2093,1,204925,233697,0.58,-0.79,9.96,-0.03,-0.01,-0.01,31.25
34093225,2075,1,205043,233934,0.58,-0.81,9.98,-0.03,-0.01,-0.00,31.25
34133192,2059,1,205117,234030,0.58,-0.80,9.96,-0.03,-0.01,-0.00,31.25
34173189,2064,1,205130,234074,0.57,-0.82,9.97,-0.03,-0.01,-0.01,31.25
34213193,2079,1,205177,234123,0.57,-0.82,9.97,-0.03,-0.01,-0.00,31.25
34253192,2063,1,205253,234330,0.58,-0.82,9.98,-0.03,-0.01,-0.01,31.25
34293232,2051,1,205291,234575,0.60,-0.82,9.96,-0.03,-0.01,-0.01,31.25
34333190,2059,1,205334,234788,0.60,-0.81,9.98,-0.03,-0.01,-0.00,31.25
34373193,2063,1,205426,234987,0.58,-0.81,9.97,-0.03,-0.01,-0.01,31.25
34413192,2058,1,205496,235158,0.58,-0.82,9.95,-0.03,-0.01,-0.00,31.25
34453193,2038,1,205528,235341,0.58,-0.80,9.98,-0.03,-0.01,-0.00,31.25
34493189,2058,1,205609,235472,0.57,-0.80,9.96,-0.03,-0.01,-0.00,31.25
34533192,2041,1,205629,235109,0.57,-0.81,9.95,-0.03,-0.01,-0.00,31.25
34573192,2039,1,205262,233781,0.59,-0.83,9.95,-0.03,-0.01,-0.00,31.25
34613193,2043,1,204802,232768,0.57,-0.81,9.96,-0.03,-0.01,-0.00,31.25
34653190,2036,1,204591,232495,0.56,-0.82,9.96,-0.03,-0.01,-0.00,31.25
34693192,2032,1,204538,232452,0.58,-0.81,9.96,-0.03,-0.01,-0.01,31.25
34734193,1993,1,204574,232543,0.57,-0.81,9.95,-0.03,-0.01,-0.00,31.25
34774193,1999,1,204651,232871,0.56,-0.81,9.96,-0.03,-0.01,-0.00,31.25
34814192,1997,1,204731,233081,0.58,-0.82,9.96,-0.03,-0.01,-0.00,31.25
34854192,2001,1,204753,233280,0.57,-0.80,9.95,-0.03,-0.01,-0.00,31.25
34894190,1984,1,204812,233405,0.58,-0.80,9.96,-0.03,-0.01,-0.00,31.25
34934193,2000,1,204838,233552,0.58,-0.83,9.96,-0.03,-0.01,-0.00,31.25
34974879,1968,1,204893,233725,0.59,-0.81,9.95,-0.03,-0.01,-0.01,31.35
35013193,2023,1,204923,233990,0.58,-0.80,9.97,-0.03,-0.01,-0.00,31.35
35053190,2013,1,205034,234158,0.59,-0.81,9.96,-0.03,-0.01,-0.01,31.35
35093192,2019,1,205145,234343,0.59,-0.81,9.94,-0.03,-0.01,-0.01,31.35
35133193,2032,1,205231,234562,0.59,-0.82,9.96,-0.03,-0.01,-0.00,31.35
35173193,2026,1,205262,234780,0.56,-0.83,9.99,-0.03,-0.01,-0.00,31.35
35213192,2014,1,205367,235042,0.58,-0.81,9.95,-0.03,-0.01,-0.00,31.35
35253193,2043,1,205447,234779,0.58,-0.81,9.95,-0.03,-0.01,-0.01,31.35
35293193,2029,1,205141,233399,0.58,-0.81,9.97,-0.03,-0.01,-0.01,31.35
35333193,2022,1,204769,232297,0.58,-0.82,9.95,-0.03,-0.01,-0.00,31.35
35373190,2019,1,204546,232029,0.57,-0.84,9.96,-0.03,-0.01,-0.01,31.35
35413192,2022,1,204497,231960,0.58,-0.81,9.95,-0.03,-0.01,-0.00,31.35
35453190,2022,1,204553,231995,0.58,-0.82,9.97,-0.03,-0.01,-0.00,31.35
35493193,2013,1,204610,232337,0.59,-0.81,9.95,-0.03,-0.01,-0.00,31.35
35533190,2011,1,204738,232734,0.58,-0.81,9.96,-0.03,-0.01,-0.00,31.35
35573193,2014,1,204862,232948,0.57,-0.79,9.96,-0.03,-0.01,-0.01,31.35
35613193,2006,1,204893,233257,0.58,-0.80,9.97,-0.03,-0.01,-0.00,31.35
35653192,2005,1,205033,233556,0.60,-0.80,9.96,-0.03,-0.01,-0.00,31.35
35693189,2004,1,205176,233905,0.58,-0.80,9.96,-0.03,-0.01,-0.01,31.35
35734205,1985,1,205283,234270,0.58,-0.82,9.97,-0.03,-0.01,-0.01,31.35
35774192,1991,1,205411,234619,0.57,-0.81,9.98,-0.03,-0.01,-0.00,31.35
35814192,1995,1,205538,234965,0.59,-0.81,9.96,-0.03,-0.01,-0.00,31.35
35854192,2000,1,205590,235163,0.58,-0.80,9.97,-0.03,-0.01,-0.00,31.35
35894193,2000,1,205672,235425,0.58,-0.80,9.98,-0.03,-0.01,-0.00,31.35
35934218,2000,1,205730,235742,0.57,-0.81,9.96,-0.03,-0.01,-0.01,31.35
35974879,1968,1,205914,235991,0.57,-0.82,9.95,-0.03,-0.01,-0.00,31.15
36013190,2016,1,205988,235996,0.56,-0.81,9.95,-0.03,-0.01,-0.00,31.15
36053192,2019,1,205864,234921,0.57,-0.79,9.94,-0.03,-0.01,-0.00,31.15
36093190,2019,1,205350,233511,0.60,-0.82,9.97,-0.03,-0.01,-0.01,31.15
36133212,2021,1,205044,232999,0.60,-0.80,9.96,-0.03,-0.01,-0.00,31.15
36173189,2021,1,205015,232924,0.59,-0.80,9.96,-0.03,-0.01,-0.00,31.15
36213193,2000,1,204977,233062,0.59,-0.80,9.97,-0.03,-0.01,-0.00,31.15
36253189,2002,1,205067,233412,0.57,-0.81,9.96,-0.03,-0.01,-0.00,31.15
36293192,2013,1,205222,233821,0.59,-0.81,9.94,-0.03,-0.01,-0.00,31.15
36333189,2007,1,205340,234130,0.58,-0.82,9.95,-0.03,-0.01,-0.00,31.15
36373192,1998,1,205423,234310,0.59,-0.84,9.97,-0.03,-0.01,-0.00,31.15
36413190,1987,1,205514,234550,0.58,-0.81,9.95,-0.03,-0.01,-0.00,31.15
36453192,2000,1,205602,234821,0.58,-0.80,9.94,-0.03,-0.01,-0.00,31.15
36493189,2011,1,205752,235169,0.58,-0.80,9.96,-0.03,-0.01,-0.00,31.15
36533193,2014,1,205869,235431,0.57,-0.81,9.97,-0.03,-0.01,-0.00,31.15
36573192,2000,1,206011,235737,0.58,-0.80,9.95,-0.03,-0.01,-0.00,31.15
36613193,1998,1,206095,235988,0.60,-0.80,9.96,-0.03,-0.01,-0.01,31.15
36653220,2007,1,206171,236264,0.59,-0.82,9.98,-0.03,-0.01,-0.00,31.15
36693192,2009,1,206247,236484,0.57,-0.82,9.93,-0.03,-0.01,-0.00,31.15
36733192,2018,1,206304,236757,0.58,-0.82,9.96,-0.03,-0.01,-0.00,31.15
36772193,2083,1,206395,237024,0.57,-0.80,9.99,-0.03,-0.01,-0.00,31.15
36812190,2069,1,206516,236993,0.57,-0.82,9.94,-0.03,-0.01,-0.00,31.15
36852192,2067,1,206332,236016,0.59,-0.81,9.96,-0.03,-0.01,-0.00,31.15
36892193,2060,1,205887,234849,0.58,-0.81,9.96,-0.03,-0.01,-0.00,31.15
36932193,2063,1,205653,234218,0.58,-0.80,9.93,-0.03,-0.01,-0.01,31.15
36972190,2059,1,205502,234190,0.57,-0.82,9.93,-0.03,-0.01,-0.01,31.15
37012879,2018,1,205549,234372,0.59,-0.79,9.97,-0.03,-0.01,-0.00,31.13
37053192,2009,1,205683,234712,0.58,-0.81,9.96,-0.03,-0.01,-0.00,31.13
37093193,2027,1,205798,235067,0.58,-0.80,9.95,-0.03,-0.01,-0.00,31.13
37133189,2010,1,205907,235207,0.58,-0.81,9.96,-0.03,-0.01,-0.00,31.13
37173192,2000,1,205974,235352,0.58,-0.83,9.96,-0.03,-0.01,-0.01,31.13
37213192,1995,1,206026,235525,0.60,-0.81,9.96,-0.03,-0.01,-0.00,31.13
37253192,1999,1,206145,235776,0.58,-0.83,9.97,-0.03,-0.01,-0.00,31.13
37293193,1999,1,206166,235995,0.60,-0.82,9.97,-0.03,-0.01,-0.00,31.13
37333193,2000,1,206248,236118,0.59,-0.82,9.94,-0.03,-0.01,-0.00,31.13
37373192,2000,1,206279,236316,0.58,-0.80,9.96,-0.03,-0.01,-0.00,31.13
37413193,2003,1,206353,236538,0.59,-0.79,9.98,-0.03,-0.01,-0.00,31.13
37453192,1995,1,206450,236738,0.59,-0.80,9.96,-0.03,-0.01,-0.00,31.13
37493193,1995,1,206531,236906,0.57,-0.81,9.96,-0.03,-0.01,-0.00,31.13
37533192,1979,1,206650,236947,0.59,-0.80,9.94,-0.03,-0.01,-0.01,31.13
37573192,1989,1,206567,235890,0.58,-0.80,9.96,-0.03,-0.01,-0.00,31.13
37613189,1977,1,206152,234351,0.59,-0.83,9.94,-0.03,-0.01,-0.00,31.13
37653192,1984,1,205736,233553,0.59,-0.80,9.97,-0.03,-0.01,-0.00,31.13
37693190,1983,1,205663,233442,0.58,-0.82,9.98,-0.03,-0.01,-0.00,31.13
37733192,2002,1,205612,233440,0.59,-0.81,9.97,-0.03,-0.01,-0.00,31.13
37773193,1986,1,205635,233715,0.57,-0.79,9.95,-0.03,-0.01,-0.00,31.13
37813193,1989,1,205718,234096,0.58,-0.81,9.96,-0.03,-0.01,-0.00,31.13
37853192,2000,1,205781,234260,0.57,-0.80,9.93,-0.03,-0.01,-0.00,31.13
37893192,2000,1,205790,234409,0.58,-0.80,9.96,-0.03,-0.01,-0.01,31.13
37933192,2007,1,205861,234505,0.57,-0.79,9.96,-0.03,-0.01,-0.00,31.13
37973193,2002,1,205932,234685,0.57,-0.82,9.98,-0.03,-0.01,-0.00,31.13
38013879,1995,1,205967,234970,0.58,-0.80,9.95,-0.03,-0.01,-0.01,31.21
38052193,2030,1,206057,235157,0.59,-0.80,9.95,-0.03,-0.01,-0.00,31.21
38092189,2019,1,206086,235396,0.58,-0.81,9.96,-0.03,-0.01,-0.00,31.21
38132192,2000,1,206170,235702,0.56,-0.83,9.96,-0.03,-0.01,-0.00,31.21
38172190,2013,1,206246,235883,0.59,-0.81,9.97,-0.03,-0.01,-0.01,31.21
38212192,2019,1,206331,236190,0.57,-0.80,9.96,-0.03,-0.01,-0.00,31.21
38252189,2011,1,206415,236449,0.58,-0.81,9.95,-0.03,-0.01,-0.00,31.21
38292192,2022,1,206500,236471,0.60,-0.81,9.98,-0.03,-0.01,-0.00,31.21
38332189,2006,1,206337,235169,0.60,-0.80,9.94,-0.03,-0.01,-0.00,31.21
38372193,2018,1,205773,233503,0.57,-0.80,9.96,-0.03,-0.01,-0.00,31.21
38412190,2004,1,205411,232938,0.58,-0.81,9.95,-0.03,-0.01,-0.00,31.21
38452193,1987,1,205349,232832,0.58,-0.83,9.95,-0.03,-0.01,-0.00,31.21
38492190,1984,1,205334,232944,0.58,-0.79,9.98,-0.03,-0.01,-0.00,31.21
38532192,2000,1,205434,233363,0.59,-0.80,9.94,-0.03,-0.01,-0.01,31.21
38572190,2000,1,205626,233884,0.56,-0.81,9.94,-0.03,-0.01,-0.00,31.21
38612192,2000,1,205708,234150,0.58,-0.80,9.96,-0.03,-0.01,-0.00,31.21
38652189,2000,1,205804,234381,0.58,-0.82,9.95,-0.03,-0.01,-0.00,31.21
38692193,2018,1,205911,234482,0.58,-0.80,9.95,-0.03,-0.01,-0.00,31.21
38732189,1987,1,206022,234780,0.57,-0.82,9.96,-0.03,-0.01,-0.01,31.21
38772192,2009,1,206183,235037,0.59,-0.79,9.95,-0.03,-0.01,-0.00,31.21
38812193,1994,1,206298,235353,0.58,-0.82,9.97,-0.03,-0.01,-0.01,31.21
38852193,1996,1,206366,235621,0.58,-0.82,9.96,-0.03,-0.01,-0.01,31.21
38892192,1998,1,206381,235932,0.58,-0.82,9.94,-0.03,-0.01,-0.00,31.21
38932192,2012,1,206543,236189,0.57,-0.80,9.96,-0.03,-0.01,-0.00,31.21
38972189,1989,1,206611,236441,0.58,-0.79,9.96,-0.03,-0.01,-0.00,31.21
39012193,2001,1,206649,236677,0.57,-0.82,9.94,-0.03,-0.01,-0.00,31.21
39052879,1989,1,206751,236852,0.60,-0.79,9.96,-0.03,-0.01,-0.00,31.15
39091193,2064,1,206652,235857,0.58,-0.80,9.95,-0.03,-0.01,-0.00,31.15
39131189,2033,1,206156,234055,0.60,-0.80,9.92,-0.03,-0.01,-0.00,31.15
39171193,2023,1,205729,233084,0.57,-0.81,9.96,-0.03,-0.01,-0.00,31.15
39211192,2015,1,205484,232971,0.57,-0.80,9.96,-0.03,-0.01,-0.01,31.15
39251193,2031,1,205502,233164,0.59,-0.81,9.97,-0.03,-0.01,-0.00,31.15
39291190,2023,1,205573,233514,0.58,-0.81,9.95,-0.03,-0.01,-0.00,31.15
39331192,2030,1,205680,234049,0.60,-0.81,9.96,-0.03,-0.01,-0.00,31.15
39371189,2043,1,205852,234457,0.57,-0.81,9.94,-0.03,-0.01,-0.00,31.15
39411198,2039,1,205900,234696,0.59,-0.83,9.93,-0.03,-0.01,-0.00,31.15
39451190,2021,1,205984,234873,0.58,-0.80,9.96,-0.03,-0.01,-0.01,31.15
39491192,2032,1,206069,235255,0.57,-0.80,9.96,-0.03,-0.01,-0.00,31.15
39531189,2015,1,206151,235590,0.57,-0.80,9.97,-0.03,-0.01,-0.00,31.15
39571193,2027,1,206271,235898,0.58,-0.81,9.95,-0.03,-0.01,-0.00,31.15
39611190,2035,1,206438,236262,0.60,-0.81,9.96,-0.03,-0.01,-0.01,31.15
39651193,2021,1,206526,236582,0.59,-0.80,9.95,-0.03,-0.01,-0.01,31.15
39691190,2022,1,206612,236880,0.57,-0.81,9.98,-0.03,-0.01,-0.00,31.15
39731193,2025,1,206690,237167,0.58,-0.81,9.95,-0.03,-0.01,-0.01,31.15
39771193,2042,1,206838,237465,0.58,-0.82,9.95,-0.03,-0.01,-0.01,31.15
39811193,2035,1,207000,237715,0.58,-0.79,9.97,-0.03,-0.01,-0.01,31.15
39851193,2035,1,206903,236842,0.57,-0.80,9.95,-0.03,-0.01,-0.01,31.15
39891193,2034,1,206478,235337,0.59,-0.84,9.98,-0.03,-0.01,-0.00,31.15
39931190,2032,1,206027,234351,0.60,-0.80,9.96,-0.03,-0.01,-0.00,31.15
39971192,2027,1,205842,234127,0.59,-0.81,9.97,-0.03,-0.01,-0.00,31.15
40011190,2030,1,205918,234165,0.57,-0.81,9.95,-0.03,-0.01,-0.00,31.15
40051193,2018,1,205957,234362,0.61,-0.79,9.96,-0.03,-0.01,-0.00,31.15
40091876,1997,1,206092,234783,0.58,-0.83,9.96,-0.03,-0.01,-0.00,31.21
40132192,1991,1,206166,234914,0.58,-0.79,9.97,-0.03,-0.01,-0.00,31.21
40172192,2001,1,206236,235096,0.59,-0.79,9.96,-0.03,-0.01,-0.00,31.21
40212192,2011,1,206267,235226,0.60,-0.82,9.95,-0.03,-0.01,-0.01,31.21
40252190,2017,1,206276,235440,0.58,-0.82,9.94,-0.03,-0.01,-0.01,31.21
40292192,2019,1,206344,235652,0.57,-0.80,9.95,-0.03,-0.01,-0.00,31.21
40332189,2001,1,206404,235824,0.58,-0.81,9.99,-0.03,-0.01,-0.00,31.21
40372193,2005,1,206450,235936,0.57,-0.82,9.94,-0.03,-0.01,-0.00,31.21
40412193,1984,1,206458,236177,0.57,-0.83,9.95,-0.03,-0.01,-0.00,31.21
40452193,2019,1,206540,236322,0.56,-0.79,9.96,-0.03,-0.01,-0.00,31.21
40492192,2000,1,206557,236591,0.58,-0.81,9.96,-0.03,-0.01,-0.01,31.21
40532192,2012,1,206684,236722,0.59,-0.81,9.96,-0.03,-0.01,-0.00,31.21
40572192,1998,1,206534,235713,0.57,-0.80,9.97,-0.03,-0.01,-0.00,31.21
40612193,2005,1,206008,234024,0.58,-0.80,9.96,-0.03,-0.01,-0.00,31.21
40652190,1968,1,205548,233037,0.57,-0.82,9.97,-0.03,-0.01,-0.01,31.21
40692192,1997,1,205381,232953,0.57,-0.83,9.95,-0.03,-0.01,-0.00,31.21
40732192,1985,1,205400,233038,0.57,-0.79,9.96,-0.03,-0.01,-0.00,31.21
40772192,1987,1,205512,233356,0.58,-0.81,9.97,-0.03,-0.01,-0.00,31.21
40812193,1978,1,205595,233726,0.59,-0.82,9.95,-0.03,-0.01,-0.00,31.21
40852224,1984,1,205699,234046,0.57,-0.80,9.96,-0.03,-0.01,-0.01,31.21
40892190,1983,1,205772,234275,0.58,-0.83,9.98,-0.03,-0.01,-0.00,31.21
40932193,1982,1,205806,234397,0.57,-0.80,9.97,-0.03,-0.01,-0.01,31.21
40972190,2000,1,205898,234636,0.58,-0.80,9.97,-0.03,-0.01,-0.00,31.21
41010192,2092,1,206010,234950,0.58,-0.83,9.98,-0.03,-0.01,-0.01,31.21
41050192,2098,1,206144,235200,0.57,-0.81,9.95,-0.03,-0.01,-0.00,31.21
41090192,2077,1,206166,235374,0.59,-0.81,9.96,-0.03,-0.01,-0.00,31.21
41130879,1999,1,206261,235629,0.59,-0.80,9.96,-0.03,-0.01,-0.00,31.15
41171193,2003,1,206404,235861,0.58,-0.80,9.97,-0.03,-0.01,-0.00,31.15
41211189,2026,1,206498,236080,0.58,-0.79,9.95,-0.03,-0.01,-0.00,31.15
41251192,2055,1,206521,236081,0.58,-0.82,9.96,-0.03,-0.01,-0.01,31.15
41291192,2045,1,206407,234898,0.59,-0.81,9.97,-0.03,-0.01,-0.00,31.15
41331193,2018,1,205809,233167,0.58,-0.79,9.97,-0.03,-0.01,-0.00,31.15
41371190,2013,1,205344,232236,0.59,-0.80,9.96,-0.03,-0.01,-0.01,31.15
41411193,2016,1,205228,232159,0.57,-0.81,9.94,-0.03,-0.01,-0.00,31.15
41451189,2016,1,205150,232283,0.57,-0.82,9.96,-0.03,-0.01,-0.00,31.15
41491193,2021,1,205266,232624,0.59,-0.81,9.95,-0.03,-0.01,-0.00,31.15
41531192,2010,1,205403,233056,0.58,-0.81,9.97,-0.03,-0.01,-0.00,31.15
41571193,2011,1,205512,233419,0.56,-0.81,9.96,-0.03,-0.01,-0.00,31.15
41611193,1998,1,205547,233593,0.58,-0.81,9.97,-0.03,-0.01,-0.00,31.15
41651193,2000,1,205605,233845,0.57,-0.81,9.97,-0.03,-0.01,-0.00,31.15
41691192,1998,1,205675,234103,0.60,-0.82,9.97,-0.03,-0.01,-0.00,31.15
41731193,2008,1,205781,234383,0.58,-0.83,9.96,-0.03,-0.01,-0.01,31.15
41771192,1994,1,205885,234690,0.59,-0.81,9.95,-0.03,-0.01,-0.01,31.15
41811192,1998,1,206006,234994,0.57,-0.81,9.98,-0.03,-0.01,-0.00,31.15
41851192,1997,1,206056,235258,0.58,-0.80,9.96,-0.03,-0.01,-0.01,31.15
41891193,1998,1,206166,235580,0.60,-0.80,9.94,-0.03,-0.01,-0.00,31.15
41931189,1995,1,206266,235874,0.57,-0.80,9.94,-0.03,-0.01,-0.01,31.15
41971193,1986,1,206346,235974,0.57,-0.79,9.95,-0.03,-0.01,-0.00,31.15
42011192,1997,1,206212,234811,0.59,-0.82,9.95,-0.03,-0.01,-0.01,31.15
42051192,1985,1,205661,233192,0.59,-0.79,9.95,-0.03,-0.01,-0.01,31.15
42091192,1974,1,205244,232361,0.57,-0.82,9.93,-0.03,-0.01,-0.00,31.15
42131879,1955,1,205147,232246,0.57,-0.80,9.97,-0.03,-0.01,-0.00,31.13
42170189,1999,1,205140,232426,0.58,-0.81,9.95,-0.03,-0.01,-0.00,31.13
42210193,2001,1,205169,232659,0.58,-0.80,9.96,-0.03,-0.01,-0.01,31.13
42250190,1978,1,205394,233139,0.57,-0.78,9.98,-0.03,-0.01,-0.00,31.13
42290193,2011,1,205476,233458,0.58,-0.83,9.95,-0.03,-0.01,-0.00,31.13
42330192,2000,1,205566,233607,0.57,-0.80,9.96,-0.03,-0.01,-0.01,31.13
42370193,2006,1,205615,233760,0.58,-0.82,9.95,-0.03,-0.01,-0.00,31.13
42410192,2020,1,205736,234031,0.58,-0.80,9.96,-0.03,-0.01,-0.00,31.13
42450193,1999,1,205753,234401,0.59,-0.79,9.95,-0.03,-0.01,-0.00,31.13
42490226,2003,1,205930,234794,0.57,-0.80,9.96,-0.03,-0.01,-0.00,31.13
42530193,2000,1,206045,235003,0.57,-0.81,9.96,-0.03,-0.01,-0.00,31.13
42570190,1987,1,206074,235221,0.58,-0.82,9.93,-0.03,-0.01,-0.01,31.13
42610193,2001,1,206187,235495,0.60,-0.81,9.97,-0.03,-0.01,-0.00,31.13
42650189,2007,1,206243,235715,0.59,-0.82,9.95,-0.03,-0.01,-0.00,31.13
42690241,2003,1,206331,235935,0.56,-0.80,9.98,-0.03,-0.01,-0.01,31.13
42730190,1995,1,206278,235273,0.58,-0.81,9.90,-0.03,-0.01,-0.00,31.13
42770193,2017,1,205851,233702,0.57,-0.79,9.96,-0.03,-0.01,-0.01,31.13
42810193,2003,1,205406,232570,0.58,-0.81,9.97,-0.03,-0.01,-0.00,31.13
42850193,2018,1,205134,232349,0.58,-0.81,9.95,-0.03,-0.01,-0.00,31.13
42890192,1999,1,205163,232492,0.58,-0.80,9.98,-0.03,-0.01,-0.00,31.13
42930193,2014,1,205229,232842,0.57,-0.79,9.96,-0.03,-0.01,-0.00,31.13
42970190,2000,1,205383,233383,0.60,-0.81,9.96,-0.03,-0.01,-0.01,31.13
43010193,2015,1,205535,233699,0.59,-0.81,9.96,-0.03,-0.01,-0.00,31.13
43050190,2006,1,205578,233853,0.58,-0.80,9.97,-0.03,-0.01,-0.00,31.13
43090192,2003,1,205644,234006,0.60,-0.82,9.97,-0.03,-0.01,-0.00,31.13
43130189,2005,1,205682,234203,0.57,-0.81,9.93,-0.03,-0.01,-0.00,31.13
43170879,1994,1,205764,234469,0.59,-0.80,9.97,-0.03,-0.01,-0.00,31.27
43211189,1986,1,205795,234747,0.58,-0.80,9.96,-0.03,-0.01,-0.00,31.27
43249193,2073,1,205952,234949,0.59,-0.82,9.96,-0.03,-0.01,-0.00,31.27
43289192,2065,1,206036,235147,0.59,-0.80,9.96,-0.03,-0.01,-0.00,31.27
43329192,2064,1,206100,235293,0.57,-0.81,9.95,-0.03,-0.01,-0.00,31.27
43369192,2074,1,206188,235449,0.58,-0.79,9.96,-0.03,-0.01,-0.00,31.27
43409193,2075,1,206255,235227,0.57,-0.79,9.95,-0.03,-0.01,-0.00,31.27
43449192,2057,1,205962,233643,0.58,-0.80,9.95,-0.03,-0.01,-0.00,31.27
43489193,2064,1,205384,232093,0.58,-0.82,9.95,-0.03,-0.01,-0.00,31.27
43529193,2033,1,205118,231592,0.58,-0.81,9.95,-0.03,-0.01,-0.01,31.27
43569192,2082,1,205031,231597,0.60,-0.82,9.96,-0.03,-0.01,-0.00,31.27
43609190,2079,1,205006,231825,0.59,-0.80,9.96,-0.03,-0.01,-0.00,31.27
43649193,2074,1,205172,232307,0.59,-0.80,9.95,-0.03,-0.01,-0.01,31.27
43689190,2075,1,205285,232726,0.59,-0.81,9.93,-0.03,-0.01,-0.01,31.27
43729193,2077,1,205387,232946,0.60,-0.83,9.97,-0.03,-0.01,-0.00,31.27
43769190,2066,1,205437,233167,0.57,-0.79,9.97,-0.03,-0.01,-0.00,31.27
43809193,2053,1,205467,233402,0.59,-0.80,9.96,-0.03,-0.01,-0.00,31.27
43849189,2060,1,205603,233623,0.59,-0.82,9.96,-0.03,-0.01,-0.01,31.27
43889193,2047,1,205718,233940,0.59,-0.81,9.96,-0.03,-0.01,-0.01,31.27
43929193,2038,1,205779,234294,0.57,-0.81,9.93,-0.03,-0.01,-0.00,31.27
43969192,2066,1,205845,234570,0.58,-0.80,9.96,-0.03,-0.01,-0.00,31.27
44009189,2064,1,205912,234914,0.59,-0.83,9.98,-0.03,-0.01,-0.00,31.27
44049193,2058,1,206025,235204,0.59,-0.82,9.98,-0.03,-0.01,-0.00,31.27
44089193,2061,1,206078,235469,0.57,-0.81,9.94,-0.03,-0.01,-0.00,31.27
44129198,2068,1,206085,234891,0.57,-0.82,9.97,-0.03,-0.01,-0.01,31.27
44169192,2057,1,205668,233174,0.59,-0.80,9.96,-0.03,-0.01,-0.00,31.27
44209879,1987,1,205170,231910,0.58,-0.83,9.94,-0.03,-0.01,-0.00,31.07
44250193,2003,1,204926,231548,0.59,-0.79,9.95,-0.03,-0.01,-0.00,31.07
44290193,2009,1,204894,231629,0.58,-0.82,9.95,-0.03,-0.01,-0.00,31.07
44330216,2002,1,204907,231724,0.59,-0.79,9.96,-0.03,-0.01,-0.00,31.07
44370193,2001,1,205019,232256,0.59,-0.80,9.97,-0.03,-0.01,-0.00,31.07
44410189,2002,1,205147,232578,0.58,-0.81,9.98,-0.03,-0.01,-0.00,31.07
44450193,2021,1,205204,232725,0.57,-0.83,9.96,-0.03,-0.01,-0.01,31.07
44490193,2005,1,205268,232843,0.58,-0.80,9.98,-0.03,-0.01,-0.00,31.07
44530213,1984,1,205375,233092,0.58,-0.81,9.97,-0.03,-0.01,-0.01,31.07
44570193,1963,1,205415,233369,0.60,-0.81,9.95,-0.03,-0.01,-0.00,31.07
44610192,1956,1,205603,233642,0.59,-0.82,9.95,-0.03,-0.01,-0.01,31.07
44650193,1970,1,205707,233886,0.58,-0.81,9.95,-0.03,-0.01,-0.00,31.07
44690193,1969,1,205796,234067,0.59,-0.82,9.97,-0.03,-0.01,-0.00,31.07
44730193,1993,1,205872,234301,0.59,-0.80,9.97,-0.03,-0.01,-0.00,31.07
44770192,1978,1,206005,234481,0.60,-0.80,9.97,-0.03,-0.01,-0.01,31.07
44810189,2000,1,206100,234758,0.62,-0.81,9.97,-0.03,-0.01,-0.00,31.07
44850193,2003,1,206175,234897,0.57,-0.80,9.97,-0.03,-0.01,-0.00,31.07
44890189,2006,1,206066,233903,0.60,-0.80,9.95,-0.03,-0.01,-0.00,31.07
44930192,2006,1,205522,231995,0.59,-0.82,9.94,-0.03,-0.01,-0.01,31.07
44970193,2001,1,204997,231080,0.58,-0.80,9.94,-0.03,-0.01,-0.01,31.07
45010193,1985,1,204778,230986,0.57,-0.80,9.97,-0.03,-0.01,-0.00,31.07
45050190,2000,1,204786,231023,0.57,-0.83,9.94,-0.03,-0.01,-0.00,31.07
45090193,1999,1,204907,231296,0.57,-0.80,9.96,-0.03,-0.01,-0.00,31.07
45130189,2015,1,204930,231807,0.59,-0.80,9.98,-0.03,-0.01,-0.00,31.07
45170193,2004,1,205080,232058,0.58,-0.82,9.96,-0.03,-0.01,-0.01,31.07
45210879,1984,1,205142,232281,0.58,-0.81,9.95,-0.03,-0.01,-0.00,31.07
45249193,2000,1,205167,232464,0.59,-0.80,9.98,-0.03,-0.01,-0.00,31.07
45289189,2015,1,205242,232715,0.57,-0.81,9.96,-0.03,-0.01,-0.00,31.07
45329193,2000,1,205386,233117,0.58,-0.79,9.97,-0.03,-0.01,-0.00,31.07
45369189,1991,1,205536,233497,0.57,-0.83,9.96,-0.03,-0.01,-0.00,31.07
45409193,2019,1,205652,233878,0.58,-0.80,9.94,-0.03,-0.01,-0.00,31.07
45449189,2019,1,205757,234183,0.59,-0.82,9.97,-0.03,-0.01,-0.00,31.07
45489193,2007,1,205857,234445,0.59,-0.81,9.96,-0.03,-0.01,-0.01,31.07
45529192,2002,1,205965,234698,0.58,-0.81,9.95,-0.03,-0.01,-0.01,31.07
45569193,2011,1,206028,234981,0.59,-0.81,9.96,-0.03,-0.01,-0.01,31.07
45609193,2013,1,206168,235088,0.59,-0.81,9.95,-0.03,-0.01,-0.00,31.07
45649192,1983,1,206103,233923,0.60,-0.82,9.95,-0.03,-0.01,-0.00,31.07
45689189,2015,1,205534,232390,0.59,-0.82,9.95,-0.03,-0.01,-0.00,31.07
45729193,2000,1,205095,231599,0.57,-0.81,9.96,-0.03,-0.01,-0.00,31.07
45769195,2014,1,205030,231626,0.58,-0.80,9.95,-0.03,-0.01,-0.00,31.07
45809193,1998,1,205033,231785,0.57,-0.80,9.96,-0.03,-0.01,-0.01,31.07
45849190,1988,1,205086,232187,0.57,-0.81,9.96,-0.03,-0.01,-0.00,31.07
45889193,2002,1,205294,232668,0.57,-0.81,9.98,-0.03,-0.01,-0.00,31.07
45929190,1998,1,205467,233013,0.57,-0.80,9.95,-0.03,-0.01,-0.01,31.07
45969233,1991,1,205515,233236,0.58,-0.79,9.97,-0.03,-0.01,-0.00,31.07
46009190,2000,1,205569,233552,0.58,-0.81,9.96,-0.03,-0.01,-0.00,31.07
46049192,1999,1,205713,233899,0.57,-0.81,9.97,-0.03,-0.01,-0.00,31.07
46089189,1997,1,205809,234298,0.59,-0.82,9.96,-0.03,-0.01,-0.00,31.07
46129193,1975,1,205853,234654,0.59,-0.82,9.96,-0.03,-0.01,-0.00,31.07
46169213,1982,1,205971,235092,0.60,-0.80,9.96,-0.03,-0.01,-0.00,31.07
46209192,2000,1,206051,235488,0.60,-0.79,9.95,-0.03,-0.01,-0.01,31.07
46249876,1998,1,206150,235993,0.58,-0.82,9.96,-0.04,-0.01,-0.01,31.05
46288193,2022,1,206266,236675,0.58,-0.83,9.97,-0.04,-0.01,-0.01,31.05
46328193,2026,1,206364,237217,0.58,-0.82,9.97,-0.04,-0.01,-0.01,31.05
46368193,2099,1,206205,235913,0.57,-0.78,9.94,-0.03,-0.01,-0.01,31.05
46408193,2069,1,205467,234986,0.57,-0.80,9.95,-0.04,-0.01,-0.01,31.05
46448193,2096,1,205130,234350,0.58,-0.79,9.99,-0.04,-0.01,-0.01,31.05
46488193,2161,1,204910,233828,0.58,-0.79,9.93,-0.05,-0.01,-0.01,31.05
46528193,2081,1,204724,233516,0.57,-0.86,10.01,-0.04,-0.01,-0.01,31.05
46568193,2089,1,204391,233456,0.56,-0.80,9.97,-0.04,-0.00,-0.01,31.05
46608193,2158,1,204222,233492,0.57,-0.83,9.98,-0.03,-0.01,-0.01,31.05
46648193,2159,1,204100,233443,0.56,-0.79,9.97,-0.04,-0.01,-0.01,31.05
46688193,2111,1,204073,233481,0.54,-0.84,9.97,-0.03,-0.01,-0.01,31.05
46728193,2160,1,204071,233436,0.61,-0.83,9.95,-0.03,-0.01,-0.01,31.05
46768193,2170,1,203996,233458,0.54,-0.83,9.95,-0.03,-0.01,-0.01,31.05
46809193,2160,1,203979,233503,0.54,-0.80,9.96,-0.03,-0.01,-0.00,31.05
46849193,2161,1,203937,233564,0.59,-0.84,9.93,-0.03,-0.01,-0.00,31.05
46889192,2193,1,203968,233640,0.59,-0.83,9.95,-0.03,-0.01,-0.00,31.05
46929193,2137,1,203918,233668,0.54,-0.83,9.96,-0.03,-0.01,-0.01,31.05
46969193,2260,1,203899,233842,0.57,-0.79,9.95,-0.03,-0.01,-0.00,31.05
47009193,2177,1,203940,234004,0.57,-0.81,9.96,-0.03,-0.01,-0.00,31.05
47049193,2219,1,204005,233777,0.56,-0.82,9.98,-0.04,-0.01,-0.01,31.05
47089193,2192,1,203691,232239,0.57,-0.80,9.94,-0.04,-0.02,-0.01,31.05
47129192,2135,1,203339,231053,0.60,-0.81,9.97,-0.03,-0.02,-0.00,31.05
47169193,2173,1,203141,230557,0.59,-0.83,9.95,-0.04,-0.01,-0.00,31.05
47209216,2053,1,203054,230600,0.56,-0.85,9.97,-0.03,-0.01,-0.01,31.05
47249879,2075,1,202918,230604,0.56,-0.80,9.96,-0.03,-0.01,-0.01,31.25
47288190,1998,1,202834,230912,0.56,-0.81,9.97,-0.03,-0.01,-0.01,31.25
47328193,2005,1,202936,231289,0.55,-0.82,9.95,-0.03,-0.01,-0.00,31.25
47368193,1901,1,203012,231511,0.59,-0.84,9.94,-0.03,-0.01,-0.01,31.25
47408193,1938,1,202962,231632,0.59,-0.83,9.98,-0.03,-0.01,-0.01,31.25
47448192,2000,1,202951,231810,0.56,-0.80,9.96,-0.03,-0.01,-0.00,31.25
47488193,1904,1,202968,232004,0.56,-0.79,9.93,-0.03,-0.01,-0.00,31.25
47528192,1904,1,202970,232357,0.57,-0.84,9.96,-0.03,-0.01,-0.00,31.25
47568193,1935,1,203108,232630,0.57,-0.82,9.96,-0.03,-0.01,-0.00,31.25
47608190,1967,1,203168,232926,0.55,-0.80,9.95,-0.03,-0.01,-0.00,31.25
47648193,1742,1,203337,233279,0.58,-0.80,9.96,-0.03,-0.01,-0.00,31.25
47688190,1941,1,203360,233585,0.59,-0.84,9.98,-0.03,-0.01,-0.00,31.25
47728193,1927,1,203414,234030,0.58,-0.84,9.95,-0.03,-0.01,-0.01,31.25
47768192,1947,1,203539,234176,0.59,-0.81,9.96,-0.03,-0.01,-0.01,31.25
47808193,1927,1,203219,232588,0.58,-0.81,9.95,-0.03,-0.01,-0.00,31.25
47848190,1918,1,202590,231268,0.57,-0.85,9.97,-0.03,-0.01,-0.00,31.25
47888193,1908,1,202317,230607,0.56,-0.84,9.97,-0.03,-0.01,-0.01,31.25
47928192,1914,1,202165,230261,0.60,-0.82,9.96,-0.03,-0.01,-0.01,31.25
47968193,1917,1,202081,230088,0.58,-0.84,9.94,-0.03,-0.01,-0.00,31.25
48008190,1915,1,202034,230170,0.57,-0.85,9.96,-0.03,-0.01,-0.01,31.25
48048193,1863,1,202126,230437,0.60,-0.84,9.98,-0.03,-0.01,-0.00,31.25
48088189,1930,1,202202,230677,0.55,-0.81,9.95,-0.03,-0.01,-0.00,31.25
48128193,1857,1,202254,230809,0.56,-0.81,9.95,-0.03,-0.01,-0.00,31.25
48168192,1971,1,202253,230950,0.58,-0.82,9.95,-0.03,-0.01,-0.00,31.25
48208193,1913,1,202285,231300,0.55,-0.82,9.99,-0.03,-0.01,-0.00,31.25
48248192,1954,1,202522,231459,0.57,-0.82,9.96,-0.03,-0.01,-0.00,31.25
48288879,1973,1,202578,231793,0.61,-0.82,9.97,-0.03,-0.01,-0.01,31.01
48327193,2045,1,202598,232181,0.58,-0.84,9.96,-0.03,-0.00,-0.01,31.01
48367193,2043,1,202720,232677,0.57,-0.83,9.96,-0.03,-0.01,-0.01,31.01
48407193,2030,1,202917,233235,0.57,-0.79,9.94,-0.03,-0.01,-0.00,31.01
48447193,2029,1,203080,233662,0.58,-0.81,9.96,-0.03,-0.01,-0.00,31.01
48487193,2058,1,203287,233914,0.58,-0.84,9.95,-0.03,-0.01,-0.01,31.01
48527193,2093,1,203378,233564,0.57,-0.80,9.95,-0.03,-0.01,-0.00,31.01
48567190,2038,1,202935,231756,0.58,-0.81,9.94,-0.03,-0.01,-0.00,31.01
48607193,2062,1,202353,230518,0.57,-0.82,9.96,-0.03,-0.01,-0.01,31.01
48647193,2070,1,202145,229966,0.58,-0.85,9.96,-0.03,-0.01,-0.00,31.01
48687193,2069,1,201986,229598,0.58,-0.82,9.96,-0.03,-0.01,-0.01,31.01
48727193,2045,1,201856,229509,0.55,-0.82,9.94,-0.03,-0.01,-0.01,31.01
48767193,2059,1,201780,229881,0.58,-0.81,9.97,-0.03,-0.00,-0.00,31.01
48807189,2063,1,201867,231019,0.60,-0.82,9.94,-0.04,-0.00,-0.01,31.01
48847193,2103,1,202089,231022,0.47,-0.85,10.14,-0.04,-0.01,-0.01,31.01
48887193,2045,1,202339,230906,0.68,-0.76,9.63,-0.03,-0.02,-0.00,31.01
48927192,2043,1,202229,230980,0.52,-0.81,10.05,-0.03,-0.02,-0.01,31.01
48967193,2046,1,202489,231332,0.59,-0.84,9.93,-0.03,-0.01,-0.00,31.01
49007193,2028,1,202638,231673,0.57,-0.81,9.99,-0.03,-0.01,-0.00,31.01
49047192,2027,1,202871,232172,0.57,-0.80,9.92,-0.03,-0.02,-0.00,31.01
49087192,2031,1,203266,232819,0.59,-0.80,9.98,-0.04,-0.02,-0.00,31.01
49127189,2021,1,203533,233436,0.59,-0.82,9.95,-0.04,-0.01,-0.00,31.01
49167192,2032,1,203801,234033,0.61,-0.84,9.95,-0.04,-0.01,-0.01,31.01
49207193,2037,1,203937,234478,0.56,-0.80,9.98,-0.03,-0.01,-0.00,31.01
49247193,2041,1,204069,234657,0.57,-0.80,9.96,-0.03,-0.01,-0.00,31.01
49287189,2015,1,203922,233380,0.56,-0.83,9.97,-0.03,-0.01,-0.00,31.01
49327879,1979,1,203475,232157,0.59,-0.82,9.96,-0.03,-0.01,-0.00,31.35
49368190,1991,1,203204,231620,0.58,-0.82,9.96,-0.03,-0.01,-0.01,31.35
49408193,1977,1,203071,231440,0.59,-0.80,9.98,-0.03,-0.01,-0.00,31.35
49448234,1991,1,202945,231454,0.56,-0.82,9.96,-0.03,-0.01,-0.00,31.35
49488193,1871,1,202916,231739,0.59,-0.83,9.96,-0.03,-0.01,-0.00,31.35
49528192,1933,1,203057,232034,0.56,-0.79,9.95,-0.03,-0.01,-0.01,31.35
49568192,1873,1,203041,232298,0.56,-0.80,9.97,-0.04,-0.01,-0.01,31.35
49608190,2032,1,203111,232765,0.59,-0.83,9.94,-0.04,-0.01,-0.01,31.35
49648192,2096,1,203039,232867,0.61,-0.83,9.92,-0.04,-0.00,-0.01,31.35
49688190,2073,1,202867,233196,0.52,-0.82,9.96,-0.05,-0.01,-0.01,31.35
49728193,2063,1,202836,233373,0.56,-0.82,9.93,-0.04,-0.01,-0.01,31.35
49768193,2086,1,202698,233255,0.56,-0.84,10.00,-0.04,-0.01,-0.01,31.35
49808193,2061,1,202617,233172,0.57,-0.86,9.95,-0.03,-0.01,-0.01,31.35
49848192,2094,1,202586,233182,0.56,-0.81,9.94,-0.03,-0.01,-0.00,31.35
49887193,2139,1,202537,233263,0.56,-0.81,9.96,-0.03,-0.01,-0.00,31.35
49927192,2114,1,202516,233207,0.58,-0.82,9.96,-0.03,-0.01,-0.01,31.35
49967193,2129,1,202192,231747,0.56,-0.87,9.95,-0.03,-0.01,-0.00,31.35
50007193,2131,1,201620,230451,0.56,-0.79,9.96,-0.03,-0.01,-0.00,31.35
50047193,2107,1,201270,229621,0.56,-0.81,9.96,-0.03,-0.01,-0.01,31.35
50087192,2109,1,201209,229425,0.56,-0.83,9.93,-0.03,-0.01,-0.00,31.35
50127193,2089,1,201135,229481,0.55,-0.83,9.95,-0.04,-0.01,-0.00,31.35
50167190,2127,1,201132,229740,0.58,-0.82,9.96,-0.04,-0.02,-0.00,31.35
50207193,2092,1,201317,230147,0.58,-0.83,9.94,-0.03,-0.02,-0.00,31.35
50247190,2082,1,201404,230378,0.58,-0.84,9.97,-0.03,-0.01,-0.00,31.35
50287193,2010,1,201486,230589,0.59,-0.83,9.93,-0.03,-0.01,-0.00,31.35
50327879,1935,1,201526,230920,0.57,-0.82,9.96,-0.03,-0.01,-0.01,31.35
50368193,1947,1,201585,231219,0.54,-0.81,9.94,-0.03,-0.01,-0.00,31.35
50408192,1971,1,201599,231395,0.56,-0.82,9.99,-0.03,-0.01,-0.00,31.35
50448193,1948,1,201706,231657,0.59,-0.85,9.95,-0.03,-0.01,-0.00,31.35
50488193,1931,1,201837,232074,0.56,-0.83,9.96,-0.03,-0.01,-0.00,31.35
50528192,1858,1,201911,232471,0.56,-0.82,9.96,-0.03,-0.01,-0.00,31.35
50568192,1957,1,202035,232827,0.55,-0.83,9.96,-0.03,-0.01,-0.00,31.35
50608192,1935,1,202217,233418,0.58,-0.83,9.96,-0.03,-0.01,-0.00,31.35
50648192,1957,1,202358,233576,0.57,-0.84,9.96,-0.03,-0.01,-0.00,31.35
50688192,1958,1,202032,231983,0.58,-0.80,9.96,-0.03,-0.01,-0.01,31.35
50728193,1975,1,201545,230971,0.60,-0.84,9.96,-0.03,-0.01,-0.00,31.35
50768193,1990,1,201386,230538,0.59,-0.83,9.96,-0.03,-0.01,-0.00,31.35
50808192,1985,1,201302,230393,0.58,-0.83,9.95,-0.03,-0.01,-0.00,31.35
50846192,2192,1,201242,230344,0.59,-0.83,9.97,-0.03,-0.01,-0.00,31.35
50887227,1979,1,201231,230436,0.55,-0.84,9.98,-0.03,-0.01,-0.00,31.35
50927193,2027,1,201356,230603,0.57,-0.83,9.96,-0.03,-0.01,-0.00,31.35
50967190,1971,1,201360,230979,0.58,-0.86,9.90,-0.04,-0.00,-0.01,31.35
51007193,1951,1,201398,230943,0.58,-0.83,9.96,-0.03,-0.01,-0.00,31.35
51047190,1984,1,201392,231189,0.58,-0.83,9.97,-0.04,-0.01,-0.01,31.35
51087199,2126,1,201549,231653,0.57,-0.82,9.99,-0.03,-0.02,-0.00,31.35
51127193,2224,1,201717,231973,0.56,-0.82,9.98,-0.03,-0.01,-0.00,31.35
51167193,2089,1,201824,232327,0.57,-0.84,9.96,-0.03,-0.01,-0.01,31.35
51207193,2086,1,201965,232651,0.56,-0.84,9.96,-0.03,-0.01,-0.01,31.35
51247192,2110,1,202016,233080,0.57,-0.83,9.97,-0.03,-0.01,-0.00,31.35
51287189,2101,1,202155,233479,0.57,-0.84,9.95,-0.03,-0.01,-0.00,31.35
51327193,2035,1,202212,233630,0.57,-0.85,9.93,-0.03,-0.01,-0.00,31.35
51367876,1968,1,202298,233720,0.57,-0.82,9.97,-0.03,-0.01,-0.01,31.33
51406192,2029,1,202226,232391,0.59,-0.85,9.96,-0.03,-0.01,-0.00,31.33
51446192,2030,1,201615,230771,0.56,-0.85,9.96,-0.03,-0.01,-0.00,31.33
51486192,2032,1,201283,230066,0.59,-0.83,9.95,-0.03,-0.01,-0.01,31.33
51526192,2015,1,201133,229834,0.59,-0.82,9.95,-0.03,-0.01,-0.00,31.33
51566193,2015,1,201041,229761,0.57,-0.82,9.96,-0.03,-0.00,-0.00,31.33
51606192,1997,1,200936,229750,0.56,-0.84,9.95,-0.03,-0.01,-0.00,31.33
51646193,1960,1,201406,229698,0.40,-0.86,10.18,0.02,-0.04,0.02,31.33
51686160,1953,1,201275,229953,0.70,-0.79,9.80,-0.06,0.07,-0.01,31.33
51726172,1979,1,201081,231193,0.58,-0.83,10.00,-0.04,0.02,-0.02,31.33
51766170,1970,1,201217,232156,0.56,-0.84,9.96,-0.03,-0.01,-0.00,31.33
51806193,1983,1,201260,232338,0.53,-0.78,9.97,-0.03,-0.01,-0.01,31.33
51846193,1983,1,201276,232260,0.57,-0.82,9.95,-0.03,-0.02,-0.00,31.33
51886193,1973,1,201369,232158,0.56,-0.80,9.96,-0.03,-0.02,-0.00,31.33
51926190,1965,1,201514,232283,0.56,-0.83,10.00,-0.03,-0.02,-0.00,31.33
51966192,1985,1,201786,232994,0.58,-0.82,9.94,-0.04,-0.01,-0.00,31.33
52006193,1989,1,202083,233585,0.54,-0.78,9.94,-0.04,-0.01,-0.00,31.33
52046193,2000,1,202321,233759,0.58,-0.81,9.95,-0.03,-0.02,-0.00,31.33
52086192,2013,1,202468,234132,0.59,-0.82,9.96,-0.03,-0.01,-0.00,31.33
52126192,2019,1,202610,234252,0.58,-0.79,9.95,-0.04,-0.01,-0.00,31.33
52166192,1993,1,202377,232818,0.54,-0.80,9.95,-0.03,-0.01,-0.00,31.33
52206192,1984,1,201879,231709,0.58,-0.81,9.96,-0.03,-0.01,-0.00,31.33
52246193,1984,1,201690,231400,0.57,-0.81,9.99,-0.03,-0.01,-0.00,31.33
52286193,1994,1,201658,231289,0.56,-0.82,9.97,-0.03,-0.01,-0.00,31.33
52326192,2005,1,201671,231347,0.56,-0.79,9.97,-0.03,-0.01,-0.00,31.33
52366193,2000,1,201828,231637,0.57,-0.79,9.95,-0.03,-0.01,-0.00,31.33
52406879,1986,1,202039,232046,0.57,-0.82,9.98,-0.03,-0.01,-0.00,31.41
52447192,1968,1,202227,232178,0.56,-0.81,9.95,-0.03,-0.01,-0.00,31.41
52487193,1954,1,202348,232453,0.57,-0.80,9.95,-0.03,-0.01,-0.00,31.41
52527199,1968,1,202361,232773,0.59,-0.80,9.96,-0.03,-0.01,-0.00,31.41
52567189,1967,1,202538,233146,0.58,-0.82,9.97,-0.03,-0.01,-0.00,31.41
52607193,1984,1,202630,233409,0.58,-0.82,9.99,-0.03,-0.01,-0.00,31.41
52647192,1991,1,202787,233673,0.57,-0.79,9.97,-0.03,-0.01,-0.00,31.41
52687193,2035,1,202937,233936,0.57,-0.78,9.97,-0.03,-0.01,-0.00,31.41
52727220,2006,1,202990,234138,0.57,-0.82,9.95,-0.03,-0.01,-0.00,31.41
52767193,1994,1,203078,234380,0.57,-0.80,9.96,-0.03,-0.01,-0.00,31.41
52807190,1974,1,203033,234462,0.57,-0.79,9.95,-0.03,-0.01,-0.01,31.41
52847192,1970,1,202904,233416,0.57,-0.82,9.96,-0.03,-0.01,-0.00,31.41
52887192,1982,1,202434,232125,0.56,-0.82,9.95,-0.03,-0.01,-0.00,31.41
52927209,1978,1,202120,231577,0.58,-0.81,9.95,-0.03,-0.01,-0.00,31.41
52967192,1982,1,202043,231304,0.58,-0.81,9.95,-0.03,-0.01,-0.00,31.41
53007193,1986,1,201935,231250,0.57,-0.80,9.97,-0.03,-0.01,-0.01,31.41
53047190,1995,1,201922,231434,0.59,-0.79,9.96,-0.03,-0.01,-0.00,31.41
53087192,1967,1,202000,231692,0.57,-0.83,9.98,-0.03,-0.01,-0.00,31.41
53127193,1999,1,201990,231818,0.56,-0.81,9.96,-0.03,-0.01,-0.00,31.41
53167192,1971,1,202053,231951,0.57,-0.82,9.94,-0.03,-0.01,-0.01,31.41
53207193,2005,1,202067,232102,0.57,-0.81,9.95,-0.03,-0.01,-0.00,31.41
53245193,2082,1,202194,232247,0.54,-0.80,9.94,-0.03,-0.01,-0.00,31.41
53285190,2095,1,202288,232379,0.57,-0.81,9.94,-0.03,-0.01,-0.00,31.41
53325193,2073,1,202379,232481,0.57,-0.80,9.98,-0.03,-0.01,-0.00,31.41
53365190,2059,1,202505,232665,0.56,-0.84,9.93,-0.03,-0.02,-0.00,31.41
53405192,2061,1,202701,232776,0.58,-0.82,9.92,-0.03,-0.01,-0.00,31.41
53445879,2018,1,202823,233002,0.57,-0.80,9.95,-0.03,-0.01,-0.00,31.25
53486193,1993,1,202891,233008,0.56,-0.82,9.96,-0.03,-0.01,-0.00,31.25
53526190,2011,1,202693,231644,0.57,-0.81,9.96,-0.03,-0.01,-0.00,31.25
53566193,2012,1,202180,230179,0.56,-0.82,9.93,-0.03,-0.01,-0.01,31.25
53606193,2018,1,201828,229439,0.57,-0.79,9.94,-0.03,-0.01,-0.00,31.25
53646193,1969,1,201670,229229,0.57,-0.79,9.95,-0.03,-0.01,-0.00,31.25
53686190,2015,1,201720,229322,0.57,-0.82,9.97,-0.03,-0.01,-0.00,31.25
53726193,2017,1,201760,229852,0.58,-0.81,9.95,-0.03,-0.01,-0.00,31.25
53766193,1969,1,201966,230278,0.57,-0.81,9.96,-0.03,-0.01,-0.00,31.25
53806192,1968,1,202080,230523,0.57,-0.80,9.95,-0.03,-0.01,-0.00,31.25
53846189,1984,1,202051,230654,0.57,-0.82,9.95,-0.03,-0.01,-0.00,31.25
53886193,1968,1,202149,230701,0.56,-0.82,9.98,-0.03,-0.01,-0.01,31.25
53926192,2000,1,202207,230823,0.58,-0.79,9.95,-0.03,-0.01,-0.00,31.25
53966192,2001,1,202286,231121,0.58,-0.79,9.94,-0.03,-0.01,-0.00,31.25
54006192,2002,1,202348,231485,0.56,-0.81,9.94,-0.03,-0.01,-0.00,31.25
54046193,1984,1,202520,231825,0.57,-0.80,9.95,-0.03,-0.01,-0.00,31.25
54086190,1993,1,202565,232195,0.57,-0.80,9.94,-0.03,-0.01,-0.00,31.25
54126193,1980,1,202658,232431,0.58,-0.80,9.95,-0.03,-0.01,-0.00,31.25
54166190,1970,1,202670,232558,0.57,-0.81,9.97,-0.03,-0.01,-0.01,31.25
54206192,1968,1,202675,231774,0.57,-0.81,9.96,-0.03,-0.01,-0.00,31.25
54246190,1967,1,202245,230038,0.58,-0.79,9.95,-0.03,-0.01,-0.00,31.25
54286193,1979,1,201736,228820,0.57,-0.80,9.97,-0.03,-0.01,-0.01,31.25
54326192,1997,1,201452,228431,0.55,-0.82,9.96,-0.03,-0.01,-0.00,31.25
54366204,1971,1,201439,228443,0.58,-0.79,9.98,-0.03,-0.01,-0.01,31.25
54406192,1984,1,201461,228640,0.57,-0.81,9.98,-0.03,-0.01,-0.00,31.25
54446879,1945,1,201585,229115,0.56,-0.80,9.96,-0.03,-0.01,-0.01,31.13
54485190,2009,1,201721,229384,0.56,-0.79,9.97,-0.03,-0.01,-0.00,31.13
54525198,2021,1,201858,229471,0.57,-0.79,9.95,-0.03,-0.01,-0.00,31.13
54565212,2005,1,201939,229700,0.57,-0.82,9.95,-0.03,-0.01,-0.00,31.13
54605193,1991,1,202034,229988,0.58,-0.79,9.98,-0.04,-0.01,-0.00,31.13
54645190,1982,1,202137,230442,0.56,-0.79,9.95,-0.03,-0.01,-0.00,31.13
54685193,1996,1,202236,230755,0.58,-0.80,9.95,-0.03,-0.01,-0.00,31.13
54725189,2000,1,202283,231172,0.57,-0.79,9.97,-0.04,-0.01,-0.01,31.13
54765193,1991,1,202362,231587,0.58,-0.79,9.95,-0.03,-0.01,-0.00,31.13
54805192,2000,1,202483,231886,0.57,-0.80,9.96,-0.03,-0.01,-0.00,31.13
54845193,1991,1,202622,232189,0.56,-0.81,9.96,-0.03,-0.01,-0.00,31.13
54885193,1986,1,202719,232413,0.58,-0.79,9.96,-0.03,-0.01,-0.00,31.13
54925193,1968,1,202742,231660,0.56,-0.79,9.95,-0.03,-0.01,-0.00,31.13
54965192,1997,1,202204,230175,0.57,-0.79,9.93,-0.04,-0.01,-0.00,31.13
55005193,1993,1,201758,229058,0.58,-0.81,9.94,-0.03,-0.01,-0.00,31.13
55045193,2000,1,201507,228558,0.54,-0.79,9.96,-0.03,-0.01,-0.00,31.13
55085193,1997,1,201418,228502,0.55,-0.81,9.94,-0.03,-0.01,-0.01,31.13
55125193,2009,1,201501,228672,0.57,-0.78,9.97,-0.03,-0.01,-0.01,31.13
55165193,2000,1,201697,229212,0.60,-0.80,9.94,-0.03,-0.01,-0.00,31.13
55205190,1974,1,201881,229656,0.57,-0.81,9.97,-0.03,-0.01,-0.01,31.13
55245192,1997,1,201978,229954,0.58,-0.79,9.95,-0.03,-0.01,-0.01,31.13
55285193,2031,1,202092,230232,0.56,-0.80,9.99,-0.04,-0.01,-0.01,31.13
55325192,2029,1,202143,230593,0.57,-0.79,9.94,-0.04,-0.01,-0.01,31.13
55365192,1968,1,202173,230832,0.59,-0.81,9.96,-0.04,-0.01,-0.01,31.13
55405193,2064,1,202030,231170,0.57,-0.81,9.94,-0.04,0.00,-0.01,31.13
55445170,2037,1,201903,231462,0.54,-0.83,9.93,-0.04,-0.00,-0.01,31.13
55485879,1984,1,201782,231808,0.55,-0.82,9.99,-0.04,-0.01,-0.01,31.27
55524198,2095,1,201756,232103,0.56,-0.83,9.98,-0.04,-0.01,-0.01,31.27
55564192,2070,1,202013,232342,0.59,-0.81,9.94,-0.03,-0.02,-0.00,31.27
55604190,2071,1,202138,232607,0.57,-0.81,9.96,-0.03,-0.01,-0.00,31.27
55644193,2067,1,202186,232566,0.57,-0.81,9.96,-0.03,-0.01,-0.01,31.27
55684192,2153,1,202110,231107,0.58,-0.82,9.96,-0.03,-0.01,-0.00,31.27
55724192,2142,1,201520,229347,0.56,-0.80,9.95,-0.03,-0.01,-0.00,31.27
55764189,2143,1,201116,228273,0.58,-0.83,9.96,-0.03,-0.01,-0.00,31.27
55804196,2123,1,200856,228000,0.55,-0.80,9.96,-0.03,-0.01,-0.00,31.27
55844190,2148,1,201074,229716,0.62,-0.82,9.94,-0.04,-0.01,-0.01,31.27
55884192,2146,1,201276,230833,0.59,-0.84,10.02,-0.05,0.00,-0.01,31.27
55924170,2191,1,201250,231201,0.54,-0.81,9.97,-0.03,-0.01,-0.01,31.27
55964193,2192,1,201346,231603,0.58,-0.81,9.93,-0.03,-0.02,-0.00,31.27
56004228,2203,1,201572,232210,0.61,-0.85,9.98,-0.04,-0.02,-0.00,31.27
56044192,2213,1,201727,232576,0.53,-0.83,9.94,-0.03,-0.01,-0.00,31.27
56084192,2199,1,201839,232941,0.56,-0.83,9.94,-0.03,-0.02,-0.00,31.27
56124193,2194,1,202024,233483,0.54,-0.76,9.96,-0.04,-0.01,-0.00,31.27
56164190,2147,1,202212,233970,0.58,-0.84,9.94,-0.04,-0.02,-0.01,31.27
56204211,2125,1,202255,234337,0.57,-0.85,9.98,-0.03,-0.01,-0.01,31.27
56244192,2203,1,202311,234823,0.59,-0.84,9.95,-0.03,-0.01,-0.00,31.27
56284192,2208,1,202482,235292,0.57,-0.81,9.96,-0.03,-0.01,-0.01,31.27
56324193,2160,1,202503,235445,0.56,-0.85,9.98,-0.04,-0.02,-0.00,31.27
56364193,2192,1,202613,235129,0.57,-0.86,9.98,-0.03,-0.02,-0.00,31.27
56404190,2183,1,202317,232622,0.61,-0.84,9.93,-0.03,-0.02,-0.00,31.27
56444192,2170,1,201738,231444,0.59,-0.81,9.98,-0.03,-0.01,-0.00,31.27
56484190,2134,1,201818,231438,0.58,-0.84,9.97,-0.03,-0.02,-0.00,31.27
56524890,2061,1,202070,231972,0.61,-0.80,9.94,-0.03,-0.01,-0.00,31.25
56565189,2079,1,202201,232425,0.57,-0.83,9.89,-0.03,-0.00,-0.00,31.25
56605193,2053,1,202362,233034,0.55,-0.82,9.98,-0.03,-0.01,-0.00,31.25
56645193,2000,1,202461,233065,0.58,-0.81,9.96,-0.03,-0.01,-0.01,31.25
56685193,1977,1,202372,232842,0.59,-0.83,9.99,-0.03,-0.01,-0.00,31.25
56725192,1963,1,202274,232537,0.57,-0.84,9.99,-0.03,-0.01,-0.01,31.25
56765192,1965,1,202238,232514,0.57,-0.83,9.92,-0.03,-0.01,-0.00,31.25
56805192,1965,1,202318,233085,0.57,-0.82,9.95,-0.03,-0.01,-0.00,31.25
56845192,1945,1,202563,233803,0.58,-0.82,9.96,-0.04,-0.01,-0.01,31.25
56885192,1952,1,202716,234205,0.58,-0.85,9.97,-0.03,-0.01,-0.00,31.25
56925192,1959,1,202853,234432,0.60,-0.82,9.95,-0.03,-0.01,-0.00,31.25
56965190,1946,1,203057,234959,0.59,-0.85,9.95,-0.03,-0.01,-0.00,31.25
57005193,1959,1,203259,235353,0.60,-0.84,9.96,-0.04,-0.01,-0.00,31.25
57045190,1954,1,203244,234208,0.58,-0.84,9.95,-0.03,-0.01,-0.01,31.25
57085192,1936,1,202493,232291,0.61,-0.83,9.96,-0.03,-0.01,-0.00,31.25
57125192,1923,1,202108,231535,0.55,-0.85,9.96,-0.03,-0.01,-0.00,31.25
57165192,1935,1,201966,231418,0.57,-0.81,9.95,-0.03,-0.01,-0.00,31.25
57205192,1943,1,201971,231461,0.59,-0.82,9.95,-0.03,-0.01,-0.00,31.25
57245192,1955,1,201994,231655,0.58,-0.84,9.97,-0.03,-0.01,-0.00,31.25
57285192,1936,1,202117,232127,0.58,-0.84,9.97,-0.03,-0.01,-0.01,31.25
57325193,1903,1,202215,232247,0.60,-0.83,9.96,-0.03,-0.01,-0.00,31.25
57365190,1968,1,202187,232224,0.57,-0.81,9.97,-0.03,-0.01,-0.00,31.25
57405192,1953,1,202194,232309,0.58,-0.86,9.95,-0.03,-0.01,-0.00,31.25
57445192,1950,1,202194,232602,0.57,-0.83,9.94,-0.03,-0.01,-0.01,31.25
57485193,1937,1,202293,232978,0.57,-0.84,9.96,-0.03,-0.01,-0.00,31.25
57525883,1881,1,202480,233278,0.57,-0.84,9.97,-0.03,-0.01,-0.00,31.33
57564193,1954,1,202532,233594,0.58,-0.82,9.90,-0.03,-0.01,-0.01,31.33
57604189,1967,1,202664,233841,0.58,-0.84,9.99,-0.03,-0.01,-0.00,31.33
57644198,1943,1,202800,234103,0.59,-0.83,9.94,-0.03,-0.01,-0.00,31.33
57684190,1983,1,202878,234296,0.58,-0.82,9.95,-0.03,-0.01,-0.00,31.33
57724192,1982,1,202815,233084,0.58,-0.83,9.95,-0.03,-0.01,-0.01,31.33
57764192,1971,1,202170,231444,0.59,-0.83,9.96,-0.03,-0.01,-0.00,31.33
57804192,1965,1,201809,230776,0.59,-0.83,9.93,-0.03,-0.01,-0.00,31.33
57844219,1959,1,201698,230445,0.61,-0.84,9.94,-0.03,-0.01,-0.01,31.33
57884193,1984,1,201636,230274,0.58,-0.84,9.96,-0.03,-0.01,-0.00,31.33
57924192,1971,1,201637,230426,0.58,-0.82,9.97,-0.03,-0.01,-0.00,31.33
57964192,1977,1,201756,230838,0.58,-0.84,9.95,-0.03,-0.01,-0.01,31.33
58004192,1905,1,201837,231110,0.59,-0.83,9.94,-0.03,-0.01,-0.00,31.33
58044193,2026,1,201951,231113,0.58,-0.82,9.97,-0.03,-0.01,-0.00,31.33
58084190,1967,1,202002,231303,0.59,-0.82,9.97,-0.03,-0.01,-0.00,31.33
58124192,1981,1,202103,231496,0.58,-0.81,9.94,-0.03,-0.01,-0.00,31.33
58164190,2012,1,202212,231821,0.58,-0.84,9.94,-0.03,-0.01,-0.00,31.33
58204192,1987,1,202326,232177,0.59,-0.82,9.96,-0.03,-0.01,-0.00,31.33
58244190,1998,1,202469,232491,0.58,-0.82,9.94,-0.03,-0.01,-0.01,31.33
58284193,1997,1,202594,232890,0.61,-0.83,9.95,-0.03,-0.01,-0.00,31.33
58324190,1991,1,202729,233295,0.57,-0.85,9.95,-0.03,-0.01,-0.00,31.33
58364192,2002,1,202832,233659,0.59,-0.83,9.93,-0.03,-0.01,-0.00,31.33
58404190,2003,1,202913,233570,0.58,-0.82,9.99,-0.03,-0.01,-0.00,31.33
58444193,1984,1,202615,231905,0.59,-0.83,9.96,-0.03,-0.01,-0.00,31.33
58484193,1989,1,202102,230892,0.59,-0.80,9.95,-0.03,-0.01,-0.00,31.33
58524199,1975,1,201912,230393,0.60,-0.82,9.96,-0.03,-0.01,-0.00,31.33
58564876,1954,1,201740,230088,0.57,-0.82,9.96,-0.03,-0.01,-0.00,31.43
58603193,2014,1,201710,229992,0.58,-0.84,9.97,-0.03,-0.01,-0.00,31.43
58643192,2027,1,201695,230216,0.58,-0.84,9.94,-0.03,-0.01,-0.00,31.43
58683193,2023,1,201897,230606,0.59,-0.82,9.93,-0.03,-0.01,-0.00,31.43
58723192,2038,1,201989,230920,0.58,-0.82,9.94,-0.03,-0.01,-0.00,31.43
58763192,2028,1,202149,231268,0.58,-0.82,9.95,-0.03,-0.01,-0.00,31.43
58803193,2016,1,202259,231582,0.58,-0.83,9.96,-0.03,-0.01,-0.01,31.43
58843192,2026,1,202413,231963,0.59,-0.83,9.99,-0.03,-0.01,-0.00,31.43
58884192,2029,1,202585,232284,0.61,-0.82,9.94,-0.03,-0.01,-0.01,31.43
58924192,2009,1,202664,232587,0.59,-0.83,9.96,-0.03,-0.01,-0.01,31.43
58964193,2005,1,202791,232845,0.58,-0.83,9.93,-0.03,-0.01,-0.01,31.43
59004192,1989,1,202854,233120,0.59,-0.84,9.97,-0.03,-0.01,-0.00,31.43
59044192,1986,1,202918,233390,0.59,-0.83,9.96,-0.03,-0.01,-0.00,31.43
59084192,1971,1,203117,233619,0.60,-0.85,9.98,-0.03,-0.01,-0.00,31.43
59124190,1968,1,203176,233668,0.58,-0.81,9.96,-0.03,-0.01,-0.00,31.43
59164193,1989,1,203024,232410,0.59,-0.83,9.95,-0.03,-0.01,-0.00,31.43
59204193,1984,1,202585,231357,0.59,-0.82,9.98,-0.03,-0.01,-0.00,31.43
59244192,1975,1,202375,230950,0.58,-0.82,9.94,-0.04,-0.01,-0.00,31.43
59284198,1979,1,202315,230737,0.60,-0.84,9.92,-0.03,-0.01,-0.01,31.43
59324192,1978,1,202310,230613,0.59,-0.81,9.97,-0.03,-0.01,-0.00,31.43
59364192,1973,1,202349,230913,0.59,-0.82,9.96,-0.03,-0.01,-0.00,31.43
59404193,1967,1,202451,231216,0.58,-0.83,9.93,-0.03,-0.01,-0.01,31.43
59444192,1982,1,202515,231465,0.58,-0.83,9.97,-0.03,-0.01,-0.00,31.43
59484198,1995,1,202583,231614,0.59,-0.84,9.93,-0.03,-0.01,-0.00,31.43
59524195,1963,1,202613,231880,0.57,-0.85,9.96,-0.03,-0.01,-0.00,31.43
59564192,1965,1,202692,232201,0.60,-0.81,9.97,-0.03,-0.01,-0.00,31.43
59604876,1968,1,202830,232544,0.57,-0.82,9.97,-0.03,-0.01,-0.00,31.53
59643192,1982,1,203001,232864,0.58,-0.81,9.99,-0.03,-0.01,-0.00,31.53
59683192,2010,1,203069,233211,0.59,-0.82,9.95,-0.03,-0.01,-0.00,31.53
59723193,1986,1,203149,233590,0.58,-0.84,9.94,-0.03,-0.01,-0.01,31.53
59763192,1987,1,203283,233873,0.58,-0.82,9.94,-0.03,-0.01,-0.00,31.53
59803193,1995,1,203365,234136,0.60,-0.84,9.96,-0.03,-0.01,-0.00,31.53
59843190,1994,1,203467,234362,0.58,-0.80,9.97,-0.03,-0.01,-0.00,31.53
59883193,1989,1,203528,234103,0.58,-0.85,9.96,-0.03,-0.01,-0.00,31.53
59924193,1963,1,203169,232703,0.60,-0.82,9.99,-0.03,-0.01,-0.00,31.53
59964193,1949,1,202775,232078,0.61,-0.82,9.96,-0.03,-0.01,-0.00,31.53
60004192,1990,1,202601,231988,0.60,-0.82,9.98,-0.03,-0.01,-0.00,31.53
60044193,1978,1,202617,232007,0.58,-0.82,9.98,-0.03,-0.01,-0.01,31.53
60084192,1947,1,202625,232109,0.60,-0.81,9.96,-0.03,-0.01,-0.00,31.53
60124193,1982,1,202712,232390,0.58,-0.83,9.97,-0.03,-0.01,-0.00,31.53
60164192,1971,1,202773,232508,0.57,-0.82,9.95,-0.03,-0.01,-0.00,31.53
60204192,1936,1,202851,232554,0.58,-0.82,9.93,-0.03,-0.01,-0.00,31.53
60244193,1989,1,202896,232648,0.59,-0.83,9.97,-0.03,-0.01,-0.00,31.53
60282193,2061,1,202950,232821,0.58,-0.81,9.96,-0.03,-0.01,-0.00,31.53
60322213,2062,1,203012,233038,0.59,-0.82,9.95,-0.03,-0.01,-0.00,31.53
60362193,2075,1,203119,233245,0.58,-0.83,9.98,-0.03,-0.01,-0.00,31.53
60402192,2071,1,203183,233418,0.60,-0.83,9.95,-0.03,-0.01,-0.01,31.53
60442193,2071,1,203191,233402,0.60,-0.82,9.99,-0.03,-0.01,-0.00,31.53
60482189,2057,1,203312,233528,0.60,-0.83,9.93,-0.03,-0.01,-0.00,31.53
60522193,2029,1,203359,233632,0.59,-0.81,9.93,-0.03,-0.01,-0.00,31.53
60562193,2000,1,203466,233688,0.56,-0.85,9.95,-0.03,-0.01,-0.00,31.53
60602192,2061,1,203369,232779,0.59,-0.82,9.98,-0.03,-0.01,-0.01,31.53
60642879,1997,1,202963,231859,0.61,-0.84,9.97,-0.03,-0.01,-0.00,31.49
60683193,1949,1,202722,231445,0.58,-0.82,9.95,-0.03,-0.01,-0.00,31.49
60723192,1980,1,202648,231215,0.60,-0.83,9.96,-0.03,-0.01,-0.00,31.49
60763193,1984,1,202632,231154,0.60,-0.81,9.94,-0.03,-0.01,-0.01,31.49
60803190,1981,1,202610,231316,0.59,-0.82,9.97,-0.03,-0.01,-0.00,31.49
60843193,2000,1,202691,231578,0.59,-0.84,9.96,-0.03,-0.01,-0.00,31.49
60883190,1984,1,202771,231718,0.62,-0.81,9.97,-0.03,-0.01,-0.00,31.49
60922230,2039,1,202805,231739,0.61,-0.82,9.96,-0.03,-0.01,-0.00,31.49
60962192,2015,1,202849,231849,0.57,-0.81,9.95,-0.03,-0.01,-0.00,31.49
61002193,2045,1,202899,232121,0.60,-0.81,9.96,-0.03,-0.01,-0.00,31.49
61042189,2009,1,202917,232345,0.60,-0.81,9.94,-0.03,-0.01,-0.00,31.49
61082192,2029,1,203004,232585,0.57,-0.82,9.97,-0.03,-0.01,-0.01,31.49
61122215,2017,1,202999,232857,0.58,-0.82,9.95,-0.03,-0.01,-0.00,31.49
61162193,2015,1,203086,233085,0.59,-0.83,9.96,-0.03,-0.01,-0.01,31.49
61202192,2039,1,203146,233314,0.59,-0.82,9.93,-0.03,-0.01,-0.01,31.49
61242193,2007,1,203284,233523,0.56,-0.80,9.96,-0.03,-0.01,-0.00,31.49
61282189,2000,1,203360,233798,0.58,-0.83,9.93,-0.03,-0.01,-0.00,31.49
61322192,2027,1,203433,233873,0.59,-0.83,9.96,-0.03,-0.01,-0.00,31.49
61362192,1992,1,203345,232681,0.59,-0.83,9.93,-0.03,-0.01,-0.00,31.49
61402192,2011,1,202838,231599,0.58,-0.84,9.97,-0.03,-0.01,-0.00,31.49
61442193,2032,1,202562,231060,0.60,-0.83,9.96,-0.03,-0.01,-0.00,31.49
61482193,2002,1,202468,230841,0.60,-0.82,9.99,-0.03,-0.01,-0.01,31.49
61522190,2025,1,202442,230739,0.60,-0.84,9.95,-0.03,-0.01,-0.00,31.49
61562192,2004,1,202393,230903,0.60,-0.81,9.96,-0.03,-0.01,-0.00,31.49
61602190,2034,1,202506,231227,0.59,-0.84,9.95,-0.03,-0.01,-0.00,31.49
61642192,2026,1,202573,231419,0.58,-0.83,9.95,-0.03,-0.01,-0.00,31.49
61682880,1977,1,202664,231527,0.61,-0.83,9.97,-0.03,-0.01,-0.00,31.57
