timestamp_us,ecg,leads,ir,red,accX,accY,accZ,gyroX,gyroY,gyroZ,temp
1918487,1215,1,212878,244466,0.00,0.00,0.00,0.00,0.00,0.00,0.00
1948958,827,1,212188,243496,1.26,0.17,9.67,-0.03,-0.02,-0.00,33.71
1989177,641,1,212090,243499,1.28,0.16,9.92,-0.03,-0.01,-0.00,33.71
2029169,595,1,212189,243788,1.29,0.14,9.96,-0.03,-0.01,-0.00,33.71
2069172,641,1,212217,244188,1.32,0.16,9.92,-0.03,-0.01,-0.00,33.71
2109169,768,1,212402,244493,1.28,0.17,9.91,-0.03,-0.01,-0.00,33.71
2149171,914,1,212499,244577,1.29,0.15,9.94,-0.03,-0.01,-0.00,33.71
2189169,1088,1,212399,244598,1.29,0.15,9.91,-0.03,-0.01,-0.01,33.71
2229172,1255,1,212477,244604,1.29,0.14,9.92,-0.03,-0.01,-0.00,33.71
2269169,1382,1,212455,244873,1.30,0.18,9.94,-0.03,-0.01,-0.00,33.71
2309172,1509,1,212597,245265,1.27,0.16,9.94,-0.03,-0.01,-0.00,33.71
2349169,1622,1,212654,245668,1.31,0.14,9.91,-0.03,-0.01,-0.00,33.71
2389172,1728,1,212764,245927,1.29,0.15,9.91,-0.03,-0.01,-0.00,33.71
2429169,1818,1,212943,246198,1.29,0.16,9.90,-0.03,-0.01,-0.00,33.71
2469172,1872,1,213006,246399,1.31,0.17,9.92,-0.03,-0.01,-0.00,33.71
2509169,1965,1,213036,246425,1.29,0.11,9.90,-0.03,-0.01,-0.00,33.71
2549172,2021,1,212950,245209,1.27,0.15,9.93,-0.03,-0.01,-0.00,33.71
2589169,2065,1,212273,243418,1.30,0.17,9.92,-0.03,-0.01,-0.00,33.71
2629175,2094,1,211730,242785,1.27,0.15,9.91,-0.03,-0.01,-0.00,33.71
2669169,2123,1,211681,242827,1.26,0.14,9.90,-0.03,-0.01,-0.00,33.71
2709172,2112,1,211718,242967,1.30,0.14,9.93,-0.03,-0.01,-0.00,33.71
2749169,2118,1,211750,243323,1.30,0.16,9.95,-0.03,-0.01,-0.00,33.71
2789172,2117,1,211876,243723,1.27,0.15,9.90,-0.03,-0.01,-0.00,33.71
2829187,2143,1,212003,243904,1.28,0.12,9.95,-0.03,-0.01,-0.00,33.71
2869172,2137,1,212015,243986,1.30,0.14,9.93,-0.03,-0.01,-0.00,33.71
2909169,2139,1,211906,244205,1.30,0.15,9.91,-0.03,-0.01,-0.00,33.71
2949172,2098,1,211998,244514,1.28,0.16,9.94,-0.03,-0.01,-0.00,33.71
2989856,2075,1,212242,244764,1.29,0.13,9.91,-0.03,-0.01,-0.00,33.63
3028177,2076,1,212258,245154,1.28,0.13,9.91,-0.03,-0.01,-0.00,33.63
3068169,2039,1,212413,245426,1.27,0.16,9.92,-0.03,-0.01,-0.00,33.63
3108172,2023,1,212523,245856,1.27,0.15,9.94,-0.03,-0.01,-0.00,33.63
3148169,2033,1,212630,246107,1.28,0.15,9.92,-0.03,-0.01,-0.00,33.63
3188172,1983,1,212703,246123,1.30,0.13,9.89,-0.03,-0.01,-0.00,33.63
3228169,1950,1,212456,244547,1.31,0.16,9.92,-0.03,-0.01,-0.00,33.63
3268172,1962,1,211839,243204,1.28,0.17,9.93,-0.03,-0.01,-0.00,33.63
3308169,1966,1,211666,243026,1.28,0.14,9.93,-0.03,-0.01,-0.00,33.63
3348172,1986,1,211741,243261,1.26,0.14,9.95,-0.03,-0.01,-0.00,33.63
3388169,1994,1,211809,243527,1.27,0.15,9.92,-0.03,-0.01,-0.00,33.63
3428172,1987,1,211952,243958,1.29,0.16,9.93,-0.03,-0.01,-0.00,33.63
3468169,2003,1,212092,244305,1.27,0.14,9.94,-0.03,-0.01,-0.00,33.63
3508172,1978,1,212266,244439,1.30,0.17,9.92,-0.03,-0.01,-0.00,33.63
3548169,1966,1,212297,244566,1.30,0.14,9.91,-0.03,-0.01,-0.00,33.63
3588172,1936,1,212344,244795,1.27,0.15,9.91,-0.03,-0.01,-0.00,33.63
3628169,1920,1,212492,245131,1.29,0.15,9.92,-0.03,-0.01,-0.00,33.63
3668172,1904,1,212571,245319,1.29,0.16,9.92,-0.03,-0.01,-0.00,33.63
3708169,1904,1,212660,245600,1.30,0.13,9.95,-0.04,-0.00,-0.00,33.63
3748172,1894,1,212728,245821,1.29,0.13,9.91,-0.03,-0.01,-0.00,33.63
3788169,1872,1,212859,246143,1.30,0.15,9.95,-0.03,-0.01,-0.00,33.63
3828172,1851,1,212926,246242,1.31,0.15,9.91,-0.03,-0.01,-0.00,33.63
3868169,1871,1,212810,245296,1.28,0.14,9.90,-0.03,-0.01,-0.00,33.63
3908172,1869,1,212234,243651,1.27,0.15,9.94,-0.03,-0.01,-0.00,33.63
3948169,1840,1,211838,243091,1.29,0.16,9.93,-0.03,-0.01,-0.00,33.63
3988172,1834,1,211795,243297,1.28,0.12,9.94,-0.03,-0.01,-0.00,33.63
4028856,1811,1,211834,243612,1.29,0.16,9.93,-0.03,-0.01,-0.00,33.47
4067172,1862,1,212011,244062,1.29,0.15,9.92,-0.03,-0.01,-0.00,33.47
4107169,1874,1,212220,244436,1.28,0.15,9.89,-0.03,-0.01,-0.00,33.47
4147172,1877,1,212286,244599,1.29,0.14,9.92,-0.03,-0.01,-0.00,33.47
4187169,1863,1,212248,244761,1.29,0.14,9.92,-0.03,-0.01,-0.00,33.47
4227172,1847,1,212327,245052,1.28,0.17,9.93,-0.03,-0.01,-0.00,33.47
4267186,1840,1,212440,245406,1.28,0.14,9.92,-0.03,-0.01,-0.00,33.47
4307172,1846,1,212564,245791,1.29,0.13,9.94,-0.03,-0.01,-0.00,33.47
4347169,1857,1,212639,246093,1.30,0.14,9.91,-0.03,-0.01,-0.00,33.47
4387172,1872,1,212820,246360,1.29,0.16,9.93,-0.03,-0.01,-0.00,33.47
4427169,1905,1,212915,246653,1.29,0.14,9.92,-0.03,-0.01,-0.00,33.47
4467192,1927,1,213038,246832,1.31,0.16,9.92,-0.03,-0.01,-0.00,33.47
4507169,1939,1,212944,245991,1.29,0.15,9.92,-0.04,-0.01,-0.00,33.47
4547172,1923,1,212546,244554,1.30,0.14,9.84,-0.03,-0.01,-0.01,33.47
4587169,1959,1,212250,244227,1.28,0.15,9.96,-0.03,-0.01,-0.00,33.47
4627172,1963,1,212347,244601,1.30,0.14,9.90,-0.03,-0.01,-0.00,33.47
4667193,1926,1,212559,245023,1.28,0.15,9.92,-0.03,-0.01,-0.00,33.47
4707172,1906,1,212669,245333,1.30,0.15,9.92,-0.03,-0.01,-0.00,33.47
4747169,1897,1,212764,245553,1.31,0.15,9.93,-0.03,-0.01,-0.00,33.47
4787172,1900,1,212790,245617,1.29,0.15,9.91,-0.03,-0.00,-0.00,33.47
4827169,1905,1,212810,245718,1.29,0.16,9.93,-0.03,-0.01,-0.01,33.47
4867172,1885,1,212896,245883,1.30,0.16,9.93,-0.03,-0.01,-0.00,33.47
4907169,1867,1,212944,246189,1.30,0.13,9.93,-0.03,-0.01,-0.00,33.47
4947172,1860,1,213095,246443,1.28,0.15,9.93,-0.03,-0.01,-0.00,33.47
4987169,1881,1,213255,246744,1.27,0.15,9.92,-0.03,-0.01,-0.00,33.47
5027172,1871,1,213345,247002,1.29,0.15,9.92,-0.03,-0.01,-0.00,33.47
5067859,1810,1,213436,247335,1.28,0.16,9.91,-0.03,-0.01,-0.00,33.47
5108172,1822,1,213489,247353,1.28,0.15,9.91,-0.03,-0.02,-0.00,33.47
5148169,1843,1,213259,246185,1.31,0.13,9.90,-0.03,-0.02,-0.00,33.47
5188172,1810,1,212633,244537,1.28,0.14,9.91,-0.03,-0.01,-0.00,33.47
5228169,1828,1,212260,244063,1.29,0.15,9.89,-0.03,-0.01,-0.00,33.47
5268172,1818,1,212274,244383,1.27,0.15,9.90,-0.03,-0.01,-0.00,33.47
5308169,1817,1,212384,244803,1.28,0.14,9.92,-0.03,-0.01,-0.00,33.47
5348204,1815,1,212626,245318,1.31,0.15,9.92,-0.03,-0.01,-0.00,33.47
5388169,1825,1,212840,245739,1.30,0.12,9.91,-0.03,-0.01,-0.01,33.47
5428172,1840,1,212946,245834,1.29,0.13,9.93,-0.03,-0.01,-0.00,33.47
5468169,1840,1,212771,245782,1.31,0.14,9.91,-0.03,-0.01,-0.00,33.47
5508172,1840,1,212733,245861,1.30,0.17,9.96,-0.03,-0.01,-0.00,33.47
5548169,1831,1,212765,246105,1.31,0.13,9.92,-0.03,-0.01,-0.00,33.47
5588172,1831,1,212857,246445,1.30,0.16,9.92,-0.03,-0.01,-0.00,33.47
5628169,1850,1,212955,246770,1.28,0.14,9.94,-0.03,-0.01,-0.00,33.47
5668172,1862,1,213073,247013,1.27,0.13,9.90,-0.03,-0.01,-0.00,33.47
5708169,1862,1,213150,247300,1.30,0.17,9.94,-0.03,-0.01,-0.00,33.47
5748172,1901,1,213286,247240,1.30,0.13,9.93,-0.03,-0.01,-0.00,33.47
5788169,1895,1,212954,245631,1.29,0.15,9.91,-0.03,-0.01,-0.00,33.47
5828172,1903,1,212225,243850,1.28,0.14,9.91,-0.03,-0.01,-0.00,33.47
5868169,1902,1,211853,243348,1.30,0.16,9.91,-0.03,-0.01,-0.00,33.47
5908172,1908,1,211814,243488,1.29,0.11,9.93,-0.03,-0.01,-0.00,33.47
5948169,1904,1,211887,243674,1.29,0.16,9.90,-0.03,-0.01,-0.00,33.47
5988172,1897,1,211927,243856,1.30,0.16,9.92,-0.03,-0.01,-0.00,33.47
6028169,1936,1,211998,243965,1.30,0.16,9.92,-0.03,-0.00,-0.00,33.47
6068858,1926,1,212093,243679,1.27,0.14,9.94,-0.03,-0.01,-0.00,33.21
6107173,1946,1,211971,243520,1.28,0.15,9.88,-0.03,-0.01,-0.00,33.21
6147172,1920,1,211923,243539,1.28,0.14,9.90,-0.03,-0.01,-0.00,33.21
6187169,1903,1,211939,243777,1.28,0.16,9.94,-0.03,-0.01,-0.00,33.21
6227172,1872,1,212058,244232,1.29,0.16,9.95,-0.03,-0.01,-0.00,33.21
6267169,1888,1,212269,244545,1.27,0.14,9.93,-0.03,-0.01,-0.00,33.21
6307178,1872,1,212389,244822,1.28,0.15,9.93,-0.03,-0.01,-0.00,33.21
6347169,1837,1,212508,245128,1.29,0.15,9.90,-0.03,-0.01,-0.00,33.21
6387172,1865,1,212482,244266,1.29,0.15,9.90,-0.03,-0.01,-0.00,33.21
6427169,1853,1,211881,242198,1.27,0.15,9.91,-0.03,-0.01,-0.00,33.21
6467172,1849,1,211386,241504,1.26,0.15,9.91,-0.03,-0.01,-0.00,33.21
6507169,1836,1,211284,241857,1.28,0.14,9.92,-0.03,-0.01,-0.00,33.21
6547172,1834,1,211523,242373,1.28,0.16,9.95,-0.03,-0.02,-0.00,33.21
6587169,1828,1,211810,243332,1.28,0.17,9.90,-0.03,-0.01,-0.00,33.21
6627172,1810,1,212149,244053,1.29,0.17,9.93,-0.03,-0.01,-0.00,33.21
6667169,1829,1,212352,244412,1.28,0.15,9.95,-0.03,-0.01,-0.01,33.21
6707172,1803,1,212509,244615,1.29,0.17,9.90,-0.03,-0.01,-0.00,33.21
6747169,1807,1,212647,245128,1.27,0.15,9.93,-0.03,-0.01,-0.01,33.21
6787171,1790,1,212866,245787,1.29,0.17,9.92,-0.03,-0.01,-0.00,33.21
6827169,1779,1,213098,246322,1.27,0.17,9.93,-0.03,-0.01,-0.00,33.21
6867172,1792,1,213257,246860,1.27,0.15,9.91,-0.03,-0.01,-0.00,33.21
6907169,1807,1,213445,247285,1.28,0.15,9.92,-0.04,-0.01,-0.00,33.21
6947172,1780,1,213585,247763,1.28,0.16,9.91,-0.03,-0.01,-0.00,33.21
6987169,1826,1,213717,247939,1.29,0.16,9.94,-0.03,-0.01,-0.00,33.21
7027172,1829,1,213685,247041,1.30,0.16,9.90,-0.03,-0.01,-0.00,33.21
7067169,1807,1,213007,245142,1.29,0.15,9.94,-0.03,-0.01,-0.00,33.21
7107858,1807,1,212542,244457,1.30,0.15,9.93,-0.03,-0.01,-0.00,31.99
7146169,1899,1,212544,244657,1.28,0.14,9.94,-0.03,-0.01,-0.00,31.99
7186172,1898,1,212700,244956,1.27,0.14,9.91,-0.03,-0.01,-0.00,31.99
7226169,1905,1,212779,245362,1.28,0.15,9.95,-0.03,-0.01,-0.00,31.99
7266172,1921,1,212951,245787,1.28,0.15,9.92,-0.03,-0.01,-0.00,31.99
7306169,1933,1,213074,245952,1.29,0.16,9.92,-0.03,-0.01,-0.01,31.99
7346172,1925,1,213079,245878,1.28,0.18,9.92,-0.03,-0.00,-0.01,31.99
7386169,1909,1,213059,245889,1.28,0.17,9.90,-0.03,-0.00,-0.00,31.99
7426172,1903,1,213068,246055,1.29,0.16,9.91,-0.03,-0.00,-0.00,31.99
7466169,1890,1,213111,246397,1.28,0.17,9.93,-0.03,-0.01,-0.00,31.99
7506172,1893,1,213280,246464,1.27,0.15,9.92,-0.03,-0.01,-0.00,31.99
7546172,1914,1,213217,246468,1.28,0.15,9.93,-0.03,-0.02,-0.00,31.99
7586172,1898,1,213210,246402,1.28,0.17,9.93,-0.03,-0.03,-0.00,31.99
7626169,1891,1,213182,246446,1.32,0.16,9.88,-0.03,-0.01,-0.00,31.99
7666171,1891,1,213171,246616,1.29,0.18,9.93,-0.03,-0.01,-0.00,31.99
7706170,1904,1,213100,245868,1.27,0.16,9.93,-0.03,-0.00,-0.01,31.99
7746188,1882,1,212526,243901,1.29,0.17,9.93,-0.03,-0.01,-0.00,31.99
7786172,1936,1,212069,243434,1.27,0.17,9.94,-0.03,-0.01,-0.00,31.99
7826172,1911,1,212140,243455,1.28,0.17,9.93,-0.03,-0.01,-0.00,31.99
7866169,1905,1,212098,243509,1.27,0.15,9.92,-0.03,-0.01,-0.00,31.99
7906172,1885,1,212141,243816,1.27,0.18,9.93,-0.03,-0.01,-0.00,31.99
7946213,1904,1,212218,243999,1.30,0.17,9.90,-0.03,-0.01,-0.00,31.99
7986172,1878,1,212234,243884,1.26,0.15,9.91,-0.03,-0.01,-0.00,31.99
8026174,1875,1,212043,243649,1.29,0.17,9.90,-0.03,-0.01,-0.00,31.99
8066172,1869,1,211995,243730,1.27,0.17,9.92,-0.03,-0.01,-0.00,31.99
8106172,1845,1,212075,244073,1.30,0.16,9.91,-0.03,-0.01,-0.01,31.99
8146859,1805,1,212026,244085,1.27,0.16,9.92,-0.03,-0.00,-0.00,31.81
8187169,1850,1,211942,244359,1.27,0.18,9.95,-0.03,-0.01,-0.00,31.81
8227172,1840,1,212081,244726,1.27,0.18,9.93,-0.03,-0.01,-0.00,31.81
8267169,1871,1,212286,245179,1.28,0.17,9.89,-0.04,-0.02,-0.00,31.81
8307172,1871,1,212577,245771,1.29,0.17,9.91,-0.04,-0.01,-0.00,31.81
8347169,1917,1,212788,246244,1.28,0.16,9.90,-0.04,-0.01,-0.00,31.81
8387172,1891,1,212853,245524,1.27,0.17,9.91,-0.04,-0.01,-0.00,31.81
8427169,1884,1,212294,243575,1.29,0.17,9.93,-0.04,-0.01,-0.01,31.81
8467172,1910,1,211831,242933,1.26,0.14,9.93,-0.04,-0.01,-0.00,31.81
8507169,1898,1,211869,243376,1.29,0.16,9.93,-0.04,-0.02,-0.00,31.81
8547172,1917,1,212096,243875,1.30,0.18,9.91,-0.04,-0.02,-0.00,31.81
8587169,1930,1,212218,244322,1.30,0.14,9.92,-0.04,-0.02,-0.00,31.81
8627172,1954,1,212479,244871,1.29,0.16,9.93,-0.03,-0.01,-0.00,31.81
8665169,2046,1,212687,245181,1.26,0.16,9.94,-0.03,-0.01,-0.00,31.81
8705171,2019,1,212593,245162,1.28,0.17,9.93,-0.04,-0.01,-0.00,31.81
8745169,2001,1,212772,245495,1.29,0.16,9.92,-0.03,-0.01,-0.00,31.81
8785172,1980,1,212861,245868,1.29,0.14,9.91,-0.03,-0.01,-0.00,31.81
8825172,1955,1,213008,246316,1.29,0.15,9.92,-0.03,-0.01,-0.00,31.81
8865172,1910,1,213218,246706,1.29,0.15,9.93,-0.03,-0.01,-0.01,31.81
8905172,1910,1,213270,246880,1.29,0.17,9.91,-0.03,-0.01,-0.00,31.81
8945172,1887,1,213409,247039,1.29,0.15,9.90,-0.03,-0.01,-0.00,31.81
8985169,1855,1,213443,247245,1.30,0.17,9.94,-0.03,-0.01,-0.00,31.81
9025195,1872,1,213377,246816,1.30,0.15,9.93,-0.03,-0.01,-0.00,31.81
9065169,1875,1,213000,244740,1.31,0.17,9.91,-0.03,-0.01,-0.00,31.81
9105172,1895,1,212237,243134,1.31,0.13,9.97,-0.03,-0.01,-0.00,31.81
9145169,1897,1,211886,242990,1.29,0.18,9.93,-0.03,-0.01,-0.00,31.81
9185859,1840,1,212062,243447,1.29,0.15,9.89,-0.03,-0.01,-0.00,32.39
9226169,1840,1,212269,243853,1.32,0.15,9.94,-0.03,-0.01,-0.01,32.39
9266172,1879,1,212558,244596,1.30,0.15,9.91,-0.03,-0.01,-0.00,32.39
9306169,1862,1,212631,244894,1.30,0.16,9.93,-0.03,-0.01,-0.00,32.39
9346172,1866,1,212656,244849,1.30,0.14,9.94,-0.03,-0.01,-0.00,32.39
9386175,1869,1,212740,245128,1.30,0.15,9.94,-0.03,-0.01,-0.01,32.39
9426172,1872,1,212822,245412,1.29,0.17,9.91,-0.03,-0.01,-0.00,32.39
9466172,1862,1,212982,245968,1.30,0.15,9.89,-0.03,-0.01,-0.00,32.39
9506172,1851,1,213189,246448,1.30,0.15,9.89,-0.03,-0.01,-0.00,32.39
9546169,1850,1,213227,246853,1.30,0.15,9.93,-0.03,-0.01,-0.00,32.39
9586177,1851,1,213481,247414,1.31,0.14,9.93,-0.03,-0.01,-0.00,32.39
9626169,1841,1,213802,248195,1.31,0.16,9.92,-0.03,-0.01,-0.00,32.39
9666172,1845,1,214139,248573,1.30,0.16,9.90,-0.03,-0.01,-0.00,32.39
9706169,1859,1,213999,247387,1.29,0.14,9.93,-0.03,-0.01,-0.00,32.39
9746172,1886,1,213898,247771,1.32,0.16,9.82,-0.04,-0.03,-0.01,32.39
9786186,1833,1,214817,249369,1.30,0.16,9.92,-0.04,-0.01,-0.01,32.39
9826172,1821,1,215890,250821,1.29,0.14,9.91,-0.04,-0.01,-0.01,32.39
9866172,1856,1,216491,251675,1.30,0.15,9.94,-0.03,-0.02,-0.00,32.39
9906172,1873,1,216906,252558,1.33,0.13,9.91,-0.03,-0.02,-0.00,32.39
9946169,1835,1,217129,252966,1.32,0.15,9.93,-0.03,-0.01,-0.00,32.39
9986172,1841,1,217114,252999,1.31,0.16,9.92,-0.03,-0.01,-0.00,32.39
10026174,1831,1,217214,253054,1.33,0.14,9.89,-0.03,-0.01,-0.00,32.39
10066172,1845,1,217170,253219,1.33,0.15,9.87,-0.03,-0.01,-0.00,32.39
10106172,1847,1,217391,253760,1.31,0.14,9.93,-0.03,-0.01,-0.00,32.39
10146172,1851,1,217517,254053,1.32,0.14,9.91,-0.03,-0.01,-0.01,32.39
10186858,1855,1,217781,254301,1.32,0.13,9.95,-0.03,-0.01,-0.00,32.61
10225171,1908,1,217848,254789,1.30,0.14,9.91,-0.03,-0.01,-0.00,32.61
10265169,1898,1,217958,255185,1.29,0.11,9.93,-0.03,-0.01,-0.00,32.61
10305172,1878,1,218184,255667,1.31,0.14,9.91,-0.03,-0.01,-0.00,32.61
10345172,1875,1,218313,255323,1.31,0.15,9.93,-0.03,-0.01,-0.00,32.61
10385171,1903,1,217938,253676,1.33,0.14,9.93,-0.03,-0.00,-0.00,32.61
10425172,1862,1,217406,252805,1.30,0.13,9.92,-0.03,-0.01,-0.00,32.61
10465172,1873,1,217312,252849,1.30,0.14,9.92,-0.03,-0.02,-0.00,32.61
10505172,1872,1,217372,253007,1.31,0.15,9.93,-0.03,-0.01,-0.01,32.61
10545171,1866,1,217447,253215,1.33,0.14,9.89,-0.03,-0.01,-0.00,32.61
10585172,1841,1,217456,253502,1.32,0.14,9.93,-0.03,-0.01,-0.01,32.61
10626172,1811,1,217383,253545,1.33,0.14,9.92,-0.03,-0.01,-0.00,32.61
10666172,1870,1,217236,253365,1.30,0.14,9.92,-0.03,-0.01,-0.00,32.61
10706172,1830,1,217191,253317,1.33,0.14,9.90,-0.03,-0.01,-0.00,32.61
10746169,1836,1,217083,253561,1.31,0.15,9.92,-0.03,-0.01,-0.01,32.61
10786172,1850,1,217173,253858,1.30,0.15,9.93,-0.03,-0.01,-0.00,32.61
10826169,1857,1,217288,254059,1.31,0.15,9.91,-0.03,-0.01,-0.00,32.61
10866172,1868,1,217279,254177,1.32,0.13,9.91,-0.03,-0.01,-0.00,32.61
10906172,1883,1,217392,254184,1.32,0.14,9.91,-0.03,-0.01,-0.00,32.61
10946172,1856,1,217263,254298,1.31,0.16,9.92,-0.03,-0.01,-0.00,32.61
10986172,1851,1,217431,254450,1.32,0.14,9.92,-0.03,-0.01,-0.00,32.61
11026174,1884,1,217453,254517,1.30,0.14,9.92,-0.03,-0.01,-0.00,32.61
11066169,1895,1,217335,253713,1.32,0.14,9.90,-0.03,-0.01,-0.00,32.61
11104172,1950,1,216760,251882,1.32,0.13,9.92,-0.03,-0.01,-0.00,32.61
11144172,1949,1,216284,250747,1.34,0.16,9.92,-0.03,-0.01,-0.00,32.61
11184172,1967,1,216015,250414,1.30,0.14,9.90,-0.03,-0.01,-0.00,32.61
11224873,1879,1,216040,250461,1.32,0.14,9.91,-0.03,-0.01,-0.00,32.41
11265172,1873,1,216134,250698,1.31,0.14,9.88,-0.03,-0.01,-0.00,32.41
11305172,1843,1,216217,251219,1.31,0.14,9.93,-0.03,-0.01,-0.00,32.41
11345172,1888,1,216474,251505,1.31,0.13,9.92,-0.03,-0.01,-0.00,32.41
11385172,1873,1,216539,251643,1.29,0.12,9.93,-0.03,-0.01,-0.00,32.41
11425195,1845,1,216607,252017,1.31,0.16,9.88,-0.03,-0.01,-0.00,32.41
11465172,1859,1,216679,252506,1.32,0.13,9.92,-0.03,-0.01,-0.00,32.41
11505172,1875,1,216846,252905,1.30,0.15,9.93,-0.03,-0.00,-0.00,32.41
11545169,1897,1,217072,253277,1.31,0.17,9.92,-0.03,-0.01,-0.00,32.41
11585172,1904,1,217135,253670,1.30,0.15,9.90,-0.03,-0.01,-0.00,32.41
11625169,1885,1,217305,253984,1.31,0.14,9.90,-0.03,-0.01,-0.00,32.41
11664172,1973,1,217284,254362,1.31,0.14,9.90,-0.03,-0.01,-0.00,32.41
11704169,1963,1,217507,254715,1.29,0.13,9.90,-0.03,-0.01,-0.00,32.41
11744172,1947,1,217564,255079,1.29,0.14,9.92,-0.04,-0.01,-0.01,32.41
11784172,1937,1,217422,253741,1.30,0.14,9.90,-0.04,-0.01,-0.01,32.41
11824172,1936,1,216720,252390,1.31,0.16,9.92,-0.03,-0.01,-0.01,32.41
11864172,1920,1,216366,251962,1.29,0.14,9.93,-0.03,-0.01,-0.01,32.41
11904172,1916,1,216266,252176,1.29,0.15,9.90,-0.03,-0.01,-0.00,32.41
11944169,1905,1,216428,252356,1.32,0.14,9.94,-0.03,-0.01,-0.00,32.41
11984172,1913,1,216540,252819,1.30,0.15,9.89,-0.03,-0.01,-0.00,32.41
12024199,1920,1,216708,253205,1.32,0.12,9.89,-0.03,-0.01,-0.00,32.41
12064172,1929,1,216730,253191,1.30,0.15,9.93,-0.03,-0.01,-0.00,32.41
12104169,1904,1,216679,253278,1.30,0.13,9.91,-0.03,-0.01,-0.00,32.41
12144172,1918,1,216794,253493,1.30,0.15,9.93,-0.03,-0.01,-0.01,32.41
12184172,1927,1,216839,253713,1.31,0.13,9.93,-0.03,-0.01,-0.00,32.41
12224858,1904,1,216933,253964,1.31,0.15,9.93,-0.03,-0.01,-0.00,32.49
12265172,1893,1,217025,254179,1.27,0.14,9.92,-0.03,-0.01,-0.00,32.49
12305172,1872,1,217072,254460,1.29,0.15,9.92,-0.03,-0.01,-0.01,32.49
12345172,1890,1,217188,254640,1.30,0.14,9.90,-0.03,-0.01,-0.00,32.49
12385172,1872,1,217218,254849,1.29,0.14,9.95,-0.03,-0.01,-0.00,32.49
12425172,1884,1,217286,254410,1.29,0.14,9.92,-0.03,-0.01,-0.00,32.49
12465172,1878,1,216796,252534,1.30,0.15,9.94,-0.03,-0.01,-0.00,32.49
12505172,1902,1,216212,251465,1.30,0.14,9.89,-0.03,-0.01,-0.00,32.49
12545172,1872,1,216096,251339,1.30,0.14,9.92,-0.03,-0.01,-0.00,32.49
12585169,1882,1,216191,251459,1.31,0.13,9.92,-0.03,-0.01,-0.00,32.49
12625171,1881,1,216230,251804,1.29,0.14,9.90,-0.03,-0.01,-0.00,32.49
12664173,1923,1,216316,252250,1.30,0.14,9.93,-0.03,-0.01,-0.00,32.49
12704172,1904,1,216506,252365,1.30,0.14,9.90,-0.03,-0.01,-0.00,32.49
12744169,1910,1,216505,252390,1.31,0.13,9.92,-0.03,-0.01,-0.00,32.49
12784172,1915,1,216462,252492,1.30,0.14,9.90,-0.03,-0.01,-0.00,32.49
12824169,1920,1,216518,252749,1.29,0.16,9.90,-0.03,-0.01,-0.00,32.49
12864196,1923,1,216617,253102,1.29,0.16,9.93,-0.03,-0.01,-0.00,32.49
12904172,1923,1,216714,253347,1.30,0.13,9.94,-0.03,-0.01,-0.00,32.49
12944172,1925,1,216868,253546,1.30,0.15,9.93,-0.03,-0.01,-0.00,32.49
12984169,1930,1,216868,253775,1.30,0.16,9.93,-0.03,-0.01,-0.00,32.49
13024205,1909,1,216931,254000,1.29,0.14,9.91,-0.03,-0.01,-0.00,32.49
13064189,1888,1,216986,254197,1.30,0.15,9.91,-0.03,-0.01,-0.00,32.49
13104172,1909,1,217043,254178,1.29,0.15,9.91,-0.03,-0.01,-0.00,32.49
13144172,1925,1,216738,252465,1.30,0.15,9.90,-0.03,-0.01,-0.00,32.49
13184172,1908,1,215982,250810,1.31,0.14,9.93,-0.03,-0.01,-0.00,32.49
13224858,1856,1,215496,250281,1.30,0.14,9.93,-0.03,-0.01,-0.00,32.53
13265172,1872,1,215422,250341,1.30,0.16,9.90,-0.03,-0.01,-0.00,32.53
13305169,1863,1,215479,250400,1.30,0.15,9.91,-0.03,-0.01,-0.00,32.53
13345172,1877,1,215529,250787,1.30,0.13,9.90,-0.03,-0.01,-0.00,32.53
13385169,1884,1,215744,251121,1.28,0.15,9.93,-0.03,-0.01,-0.00,32.53
13425172,1877,1,215767,251251,1.29,0.13,9.92,-0.03,-0.01,-0.00,32.53
13465172,1881,1,215757,251292,1.31,0.14,9.91,-0.03,-0.01,-0.00,32.53
13505172,1871,1,215773,251383,1.31,0.13,9.91,-0.03,-0.01,-0.00,32.53
13545172,1894,1,215894,251671,1.29,0.12,9.91,-0.03,-0.01,-0.01,32.53
13583172,1968,1,216014,252020,1.30,0.13,9.91,-0.03,-0.01,-0.01,32.53
13623172,1993,1,216150,252350,1.31,0.15,9.91,-0.03,-0.01,-0.00,32.53
13663171,1967,1,216346,252586,1.29,0.15,9.91,-0.03,-0.01,-0.00,32.53
13704172,1947,1,216385,252824,1.29,0.14,9.92,-0.03,-0.01,-0.00,32.53
13744172,1922,1,216453,252941,1.32,0.15,9.92,-0.03,-0.01,-0.00,32.53
13784172,1918,1,216583,253159,1.31,0.14,9.92,-0.03,-0.01,-0.00,32.53
13824172,1912,1,216622,253343,1.30,0.15,9.92,-0.03,-0.01,-0.00,32.53
13864169,1899,1,216641,252700,1.31,0.15,9.89,-0.03,-0.01,-0.00,32.53
13904172,1881,1,216006,250603,1.30,0.14,9.91,-0.03,-0.01,-0.01,32.53
13944172,1888,1,215382,249347,1.30,0.15,9.91,-0.03,-0.01,-0.00,32.53
13984172,1890,1,215084,249207,1.30,0.14,9.91,-0.03,-0.01,-0.00,32.53
14024199,1903,1,215113,249314,1.28,0.13,9.91,-0.03,-0.01,-0.00,32.53
14064172,1904,1,215141,249397,1.30,0.15,9.92,-0.03,-0.01,-0.00,32.53
14104169,1883,1,215210,249752,1.30,0.15,9.94,-0.03,-0.01,-0.00,32.53
14144172,1884,1,215348,250023,1.31,0.14,9.92,-0.03,-0.01,-0.00,32.53
14184172,1887,1,215335,250036,1.31,0.15,9.92,-0.03,-0.01,-0.00,32.53
14224858,1882,1,215331,250186,1.31,0.16,9.92,-0.03,-0.01,-0.01,32.45
14263172,1987,1,215307,250465,1.30,0.15,9.94,-0.03,-0.01,-0.00,32.45
14303172,1978,1,215403,250794,1.31,0.13,9.92,-0.03,-0.01,-0.00,32.45
14343172,1974,1,215517,251166,1.30,0.14,9.94,-0.03,-0.01,-0.00,32.45
14383172,1993,1,215677,251564,1.31,0.13,9.91,-0.03,-0.01,-0.00,32.45
14423172,1975,1,215736,251904,1.28,0.15,9.91,-0.03,-0.01,-0.00,32.45
14463172,1985,1,215837,252160,1.30,0.13,9.91,-0.03,-0.01,-0.00,32.45
14503172,1984,1,215943,252376,1.30,0.14,9.92,-0.03,-0.01,-0.01,32.45
14543172,1990,1,216001,252620,1.30,0.17,9.93,-0.03,-0.01,-0.00,32.45
14583169,1939,1,216073,252826,1.32,0.13,9.93,-0.03,-0.01,-0.00,32.45
14623172,1970,1,216068,252071,1.31,0.17,9.94,-0.03,-0.01,-0.00,32.45
14663172,1990,1,215448,249954,1.30,0.16,9.90,-0.03,-0.01,-0.00,32.45
14703172,1953,1,214764,248706,1.31,0.14,9.90,-0.03,-0.01,-0.00,32.45
14743169,1962,1,214581,248586,1.30,0.15,9.92,-0.03,-0.01,-0.00,32.45
14783172,1968,1,214613,248750,1.32,0.13,9.93,-0.03,-0.01,-0.00,32.45
14823172,1984,1,214683,248924,1.31,0.11,9.91,-0.03,-0.01,-0.00,32.45
14863172,1968,1,214810,249322,1.29,0.14,9.91,-0.03,-0.01,-0.00,32.45
14903172,1970,1,214946,249589,1.30,0.14,9.92,-0.03,-0.01,-0.00,32.45
14943172,1949,1,214955,249570,1.31,0.13,9.92,-0.03,-0.01,-0.00,32.45
14983172,1977,1,214998,249651,1.31,0.13,9.92,-0.03,-0.01,-0.00,32.45
15023188,1969,1,215091,249849,1.31,0.15,9.90,-0.03,-0.01,-0.00,32.45
15063169,1951,1,215274,250287,1.30,0.14,9.91,-0.03,-0.01,-0.00,32.45
15103172,1936,1,215385,250644,1.30,0.13,9.93,-0.03,-0.01,-0.00,32.45
15143169,1955,1,215555,251082,1.31,0.13,9.95,-0.03,-0.01,-0.00,32.45
15183171,1954,1,215691,251434,1.28,0.16,9.94,-0.03,-0.01,-0.00,32.45
15223172,1984,1,215777,251813,1.30,0.14,9.91,-0.03,-0.01,-0.00,32.45
15263859,1914,1,215910,252162,1.31,0.15,9.92,-0.03,-0.01,-0.00,32.35
15304172,1920,1,216034,252565,1.30,0.15,9.93,-0.03,-0.01,-0.00,32.35
15344172,1961,1,216187,252941,1.30,0.14,9.94,-0.03,-0.01,-0.00,32.35
15384169,1923,1,216237,252490,1.31,0.14,9.91,-0.03,-0.01,-0.00,32.35
15424172,1918,1,215655,250430,1.31,0.12,9.93,-0.03,-0.01,-0.01,32.35
15464172,1941,1,215006,249194,1.30,0.15,9.94,-0.03,-0.01,-0.00,32.35
15504172,1937,1,214817,249191,1.30,0.15,9.92,-0.03,-0.01,-0.00,32.35
15544169,1918,1,214901,249582,1.29,0.14,9.92,-0.03,-0.01,-0.01,32.35
15584172,1921,1,215046,249964,1.28,0.15,9.92,-0.03,-0.01,-0.00,32.35
15624172,1907,1,215185,250612,1.31,0.13,9.94,-0.03,-0.01,-0.00,32.35
15664172,1931,1,215375,250916,1.29,0.14,9.94,-0.03,-0.01,-0.01,32.35
15704172,1929,1,215324,250942,1.29,0.14,9.92,-0.03,-0.01,-0.00,32.35
15744172,1909,1,215334,250993,1.30,0.16,9.92,-0.03,-0.01,-0.00,32.35
15784169,1909,1,215381,251285,1.29,0.15,9.92,-0.03,-0.01,-0.00,32.35
15824172,1899,1,215511,251649,1.29,0.13,9.94,-0.03,-0.01,-0.00,32.35
15864172,1923,1,215675,252101,1.29,0.15,9.94,-0.03,-0.01,-0.00,32.35
15904172,1910,1,215824,252392,1.27,0.15,9.91,-0.03,-0.01,-0.00,32.35
15944172,1899,1,215908,252688,1.30,0.13,9.92,-0.03,-0.01,-0.00,32.35
15984172,1951,1,216019,252982,1.30,0.16,9.93,-0.03,-0.01,-0.00,32.35
16024196,1938,1,216138,253283,1.30,0.12,9.93,-0.03,-0.01,-0.00,32.35
16064172,1916,1,216258,253641,1.30,0.14,9.91,-0.03,-0.01,-0.00,32.35
16104169,1915,1,216298,253073,1.30,0.15,9.93,-0.03,-0.01,-0.00,32.35
16144174,1919,1,215753,250974,1.30,0.13,9.91,-0.03,-0.01,-0.00,32.35
16184169,1936,1,215107,249734,1.29,0.14,9.91,-0.03,-0.01,-0.00,32.35
16224172,1920,1,214927,249675,1.30,0.15,9.94,-0.03,-0.01,-0.00,32.35
16262856,1949,1,214989,249916,1.31,0.15,9.91,-0.03,-0.01,-0.00,32.27
16303172,1968,1,215112,250198,1.30,0.17,9.91,-0.03,-0.01,-0.00,32.27
16343212,1957,1,215283,250753,1.29,0.14,9.93,-0.03,-0.01,-0.00,32.27
16383172,1957,1,215415,250977,1.29,0.14,9.93,-0.03,-0.01,-0.00,32.27
16423172,1917,1,215479,250927,1.30,0.16,9.90,-0.03,-0.01,-0.00,32.27
16463172,1905,1,215463,251056,1.30,0.13,9.95,-0.03,-0.01,-0.00,32.27
16503169,1952,1,215638,251595,1.30,0.14,9.90,-0.03,-0.01,-0.00,32.27
16543172,1955,1,215891,252202,1.30,0.14,9.92,-0.03,-0.01,-0.00,32.27
16583169,1938,1,216066,252571,1.31,0.14,9.93,-0.04,-0.01,-0.01,32.27
16623172,1965,1,216208,252769,1.28,0.15,9.93,-0.03,-0.01,-0.00,32.27
16663172,1892,1,216233,252870,1.30,0.14,9.90,-0.03,-0.01,-0.00,32.27
16703172,1946,1,216167,252802,1.29,0.15,9.91,-0.03,-0.02,-0.00,32.27
16743172,1943,1,216178,252908,1.29,0.16,9.90,-0.03,-0.01,-0.00,32.27
16783172,1957,1,216169,252035,1.29,0.14,9.94,-0.03,-0.01,-0.00,32.27
16823172,1954,1,215618,250369,1.29,0.14,9.94,-0.04,-0.01,-0.00,32.27
16863172,1946,1,215192,249722,1.29,0.14,9.93,-0.03,-0.01,-0.00,32.27
16903172,1957,1,215160,250027,1.30,0.13,9.93,-0.03,-0.01,-0.00,32.27
16943172,1936,1,215324,250496,1.30,0.15,9.91,-0.03,-0.01,-0.00,32.27
16983169,1936,1,215520,251042,1.30,0.15,9.93,-0.03,-0.01,-0.00,32.27
17023188,1936,1,215694,251485,1.30,0.13,9.94,-0.03,-0.01,-0.00,32.27
17063169,1939,1,215782,251526,1.29,0.13,9.90,-0.03,-0.01,-0.00,32.27
17103172,1938,1,215754,251527,1.30,0.15,9.93,-0.03,-0.01,-0.00,32.27
17143169,1942,1,215710,251585,1.28,0.13,9.92,-0.03,-0.01,-0.00,32.27
17183172,1931,1,215764,251965,1.31,0.14,9.94,-0.03,-0.01,-0.00,32.27
17223172,1937,1,215929,252372,1.27,0.15,9.93,-0.03,-0.01,-0.00,32.27
17263172,1947,1,216077,252683,1.29,0.13,9.92,-0.03,-0.01,-0.00,32.27
17303859,1911,1,216057,252936,1.30,0.13,9.92,-0.04,-0.00,-0.01,32.35
17342171,1979,1,216077,253082,1.30,0.14,9.93,-0.03,-0.01,-0.01,32.35
17382172,1991,1,216064,253035,1.28,0.15,9.93,-0.03,-0.01,-0.00,32.35
17422172,2004,1,215997,252198,1.28,0.14,9.91,-0.03,-0.01,-0.01,32.35
17462172,2007,1,215321,249928,1.27,0.14,9.91,-0.03,-0.01,-0.01,32.35
17502172,2001,1,214529,248375,1.30,0.17,9.90,-0.03,-0.01,-0.01,32.35
17542169,2000,1,214215,248126,1.29,0.14,9.92,-0.03,-0.01,-0.00,32.35
17582171,2007,1,214218,248489,1.29,0.14,9.93,-0.04,-0.00,-0.00,32.35
17622172,2002,1,214245,248786,1.28,0.13,9.93,-0.03,-0.00,-0.00,32.35
17662171,1991,1,214296,248933,1.28,0.14,9.95,-0.03,-0.01,-0.01,32.35
17702172,1978,1,214234,248678,1.29,0.14,9.92,-0.03,-0.01,-0.00,32.35
17742172,2001,1,214044,248327,1.29,0.12,9.92,-0.03,-0.02,-0.00,32.35
17782212,1999,1,213905,248173,1.28,0.15,9.92,-0.03,-0.01,-0.00,32.35
17822172,1997,1,213939,248419,1.30,0.14,9.89,-0.03,-0.01,-0.00,32.35
17862169,1980,1,214104,248836,1.29,0.15,9.91,-0.03,-0.01,-0.00,32.35
17902172,1999,1,214290,249147,1.30,0.15,9.89,-0.03,-0.02,-0.00,32.35
17942169,2000,1,214414,249525,1.29,0.14,9.90,-0.03,-0.01,-0.00,32.35
17982175,1986,1,214552,249872,1.29,0.14,9.91,-0.03,-0.01,-0.00,32.35
18022172,1998,1,214653,250112,1.31,0.14,9.92,-0.03,-0.01,-0.00,32.35
18062172,1993,1,214598,249181,1.29,0.15,9.94,-0.03,-0.01,-0.00,32.35
18102172,1999,1,213936,247045,1.29,0.14,9.92,-0.03,-0.01,-0.00,32.35
18142172,2000,1,213339,245995,1.29,0.16,9.92,-0.03,-0.01,-0.00,32.35
18182172,2001,1,213244,246026,1.29,0.16,9.90,-0.03,-0.01,-0.00,32.35
18222172,2001,1,213321,246145,1.28,0.13,9.91,-0.03,-0.01,-0.00,32.35
18262172,1991,1,213398,246420,1.30,0.15,9.94,-0.03,-0.01,-0.00,32.35
18302172,2000,1,213529,246885,1.27,0.15,9.92,-0.03,-0.01,-0.00,32.35
18342859,1911,1,213680,247221,1.30,0.15,9.92,-0.03,-0.01,-0.00,32.45
18383172,1927,1,213794,247368,1.29,0.15,9.95,-0.03,-0.01,-0.01,32.45
18423172,1931,1,213789,247585,1.30,0.14,9.91,-0.03,-0.01,-0.01,32.45
18463172,1918,1,213927,247915,1.29,0.15,9.93,-0.03,-0.01,-0.01,32.45
18503172,1936,1,214004,248287,1.30,0.15,9.92,-0.03,-0.01,-0.00,32.45
18543172,1943,1,214121,248603,1.30,0.13,9.93,-0.03,-0.01,-0.00,32.45
18583169,1950,1,214246,248924,1.28,0.15,9.92,-0.03,-0.01,-0.00,32.45
18623172,1938,1,214385,249242,1.27,0.15,9.92,-0.03,-0.01,-0.00,32.45
18663172,1941,1,214472,249455,1.29,0.15,9.91,-0.03,-0.01,-0.00,32.45
18703172,1936,1,214369,248330,1.28,0.13,9.93,-0.03,-0.01,-0.00,32.45
18743172,1961,1,213739,246712,1.29,0.14,9.90,-0.03,-0.01,-0.00,32.45
18783172,1942,1,213318,246166,1.28,0.15,9.93,-0.03,-0.01,-0.00,32.45
18823172,1940,1,213222,246241,1.28,0.13,9.92,-0.03,-0.01,-0.00,32.45
18863172,1936,1,213236,246253,1.27,0.13,9.90,-0.03,-0.01,-0.00,32.45
18903169,1938,1,213184,246574,1.29,0.13,9.93,-0.03,-0.01,-0.00,32.45
18943172,1936,1,213328,247033,1.29,0.14,9.95,-0.03,-0.01,-0.00,32.45
18983172,1926,1,213454,247228,1.30,0.15,9.94,-0.03,-0.01,-0.00,32.45
19023188,1926,1,213508,247416,1.29,0.15,9.93,-0.03,-0.01,-0.00,32.45
19063172,1934,1,213585,247687,1.30,0.13,9.91,-0.03,-0.01,-0.00,32.45
19103172,1938,1,213732,248060,1.28,0.14,9.93,-0.03,-0.01,-0.00,32.45
19143172,1936,1,213863,248438,1.27,0.15,9.90,-0.03,-0.01,-0.00,32.45
19183172,1939,1,213965,248790,1.30,0.14,9.90,-0.03,-0.01,-0.00,32.45
19223169,1951,1,214106,249052,1.30,0.13,9.92,-0.03,-0.01,-0.00,32.45
19263172,1955,1,214186,249336,1.28,0.15,9.89,-0.03,-0.01,-0.00,32.45
19303172,1942,1,214280,249555,1.29,0.15,9.91,-0.03,-0.01,-0.00,32.45
19343858,1936,1,214470,249905,1.29,0.15,9.90,-0.03,-0.01,-0.00,32.39
19382169,1977,1,214631,250301,1.29,0.13,9.93,-0.03,-0.01,-0.00,32.39
19422192,1972,1,214743,250207,1.29,0.14,9.91,-0.03,-0.01,-0.00,32.39
19462172,1973,1,214448,248990,1.29,0.14,9.92,-0.03,-0.01,-0.00,32.39
19502172,1963,1,214002,248082,1.29,0.14,9.91,-0.03,-0.01,-0.00,32.39
19542172,1946,1,213798,247876,1.29,0.16,9.92,-0.03,-0.01,-0.00,32.39
19582172,1941,1,213798,247927,1.29,0.15,9.91,-0.03,-0.01,-0.00,32.39
19622190,1934,1,213904,248085,1.29,0.13,9.93,-0.03,-0.01,-0.00,32.39
19662172,1903,1,213936,248282,1.28,0.15,9.95,-0.03,-0.01,-0.00,32.39
19702172,1922,1,214039,248565,1.29,0.13,9.92,-0.03,-0.01,-0.00,32.39
19742172,1929,1,214114,248598,1.30,0.13,9.92,-0.03,-0.01,-0.00,32.39
19782169,1931,1,214099,248688,1.30,0.16,9.94,-0.03,-0.02,-0.00,32.39
19822198,1963,1,214034,248735,1.31,0.15,9.91,-0.03,-0.02,-0.00,32.39
19862172,1968,1,214066,248933,1.31,0.16,9.89,-0.03,-0.01,-0.00,32.39
19902172,1965,1,214130,249233,1.30,0.15,9.91,-0.03,-0.01,-0.00,32.39
19942172,1969,1,214255,249682,1.30,0.13,9.92,-0.04,0.00,-0.01,32.39
19982163,1971,1,214462,250206,1.30,0.13,9.91,-0.04,0.01,-0.00,32.39
20022160,1979,1,214717,250677,1.28,0.14,9.92,-0.04,0.00,-0.01,32.39
20062163,1971,1,214864,250987,1.28,0.17,9.92,-0.03,-0.00,-0.01,32.39
20102169,1967,1,214894,250979,1.24,0.14,9.94,-0.03,-0.02,-0.00,32.39
20142172,1986,1,214874,250980,1.30,0.16,9.94,-0.03,-0.04,-0.00,32.39
20182169,1957,1,214729,251158,1.35,0.13,9.91,-0.03,-0.02,-0.00,32.39
20222172,1968,1,214827,251422,1.31,0.15,9.95,-0.03,-0.00,-0.00,32.39
20262169,1936,1,214911,251232,1.28,0.14,9.94,-0.03,-0.00,-0.01,32.39
20302172,1963,1,214738,250613,1.28,0.14,9.91,-0.04,-0.00,-0.01,32.39
20342172,1978,1,214569,250258,1.31,0.14,9.95,-0.03,-0.01,-0.00,32.39
20382858,1943,1,214500,250295,1.26,0.16,9.92,-0.03,-0.01,-0.00,32.45
20421172,1997,1,214489,250281,1.28,0.14,9.93,-0.03,-0.02,-0.00,32.45
20461172,2017,1,214407,250250,1.30,0.14,9.90,-0.03,-0.02,-0.00,32.45
20501169,2011,1,214440,250373,1.32,0.13,9.91,-0.03,-0.02,-0.00,32.45
20541172,2011,1,214487,250636,1.29,0.16,9.93,-0.03,-0.01,-0.00,32.45
20581172,2007,1,214601,250797,1.29,0.16,9.93,-0.03,-0.01,-0.00,32.45
20621172,2015,1,214629,250985,1.32,0.12,9.95,-0.03,-0.01,-0.00,32.45
20661172,2011,1,214716,251200,1.28,0.15,9.92,-0.03,-0.01,-0.00,32.45
20701172,1993,1,214775,251334,1.30,0.15,9.92,-0.03,-0.01,-0.00,32.45
20741169,1987,1,214827,251538,1.32,0.17,9.93,-0.03,-0.02,-0.00,32.45
20781171,1999,1,214907,251692,1.30,0.13,9.94,-0.03,-0.01,-0.00,32.45
20821169,1996,1,214995,251884,1.29,0.13,9.92,-0.03,-0.01,-0.00,32.45
20861172,1973,1,214997,252090,1.32,0.14,9.92,-0.03,-0.01,-0.00,32.45
20901172,1965,1,215105,252294,1.30,0.14,9.91,-0.03,-0.01,-0.00,32.45
20941172,1975,1,215124,252451,1.29,0.13,9.93,-0.03,-0.00,-0.01,32.45
20981172,1973,1,215238,252668,1.29,0.13,9.91,-0.03,-0.00,-0.01,32.45
21021179,1972,1,215302,252881,1.29,0.14,9.92,-0.03,-0.01,-0.01,32.45
21061172,1973,1,215434,253097,1.27,0.14,9.92,-0.03,-0.01,-0.00,32.45
21101172,1970,1,215429,252771,1.28,0.13,9.91,-0.03,-0.01,-0.00,32.45
21141172,1973,1,215334,252432,1.31,0.11,9.94,-0.03,-0.01,-0.00,32.45
21181172,1975,1,215258,252300,1.28,0.16,9.91,-0.03,-0.01,-0.00,32.45
21221172,1963,1,215215,252338,1.29,0.15,9.92,-0.03,-0.01,-0.00,32.45
21261184,1982,1,215235,252394,1.28,0.12,9.92,-0.03,-0.01,-0.00,32.45
21301172,1987,1,215268,252492,1.27,0.15,9.90,-0.03,-0.02,-0.00,32.45
21341172,1975,1,215277,252657,1.30,0.15,9.91,-0.03,-0.01,-0.00,32.45
21381172,1988,1,215370,252795,1.29,0.13,9.94,-0.03,-0.01,-0.00,32.45
21421858,1946,1,215323,252895,1.27,0.13,9.94,-0.03,-0.01,-0.00,32.39
21462185,1963,1,215381,252987,1.29,0.15,9.91,-0.03,-0.01,-0.00,32.39
21502171,1931,1,215391,253095,1.29,0.13,9.93,-0.03,-0.01,-0.00,32.39
21542172,1941,1,215329,253187,1.29,0.13,9.91,-0.03,-0.01,-0.00,32.39
21582172,1951,1,215371,253391,1.29,0.13,9.93,-0.03,-0.01,-0.00,32.39
21622172,1949,1,215413,253632,1.28,0.13,9.90,-0.03,-0.01,-0.00,32.39
21662172,1962,1,215427,253844,1.28,0.15,9.90,-0.03,-0.01,-0.00,32.39
21702172,1952,1,215492,253997,1.29,0.15,9.92,-0.03,-0.01,-0.00,32.39
21742172,1955,1,215568,254205,1.29,0.14,9.90,-0.03,-0.01,-0.00,32.39
21782172,1962,1,215588,254367,1.28,0.14,9.92,-0.03,-0.01,-0.00,32.39
21822171,1946,1,215678,254515,1.28,0.14,9.92,-0.03,-0.01,-0.00,32.39
21862172,1952,1,215743,254699,1.29,0.15,9.90,-0.03,-0.01,-0.00,32.39
21902172,1955,1,215790,254943,1.28,0.14,9.91,-0.03,-0.01,-0.01,32.39
21942172,1957,1,215812,254746,1.26,0.11,9.93,-0.03,-0.01,-0.00,32.39
21982171,1964,1,215712,254468,1.29,0.13,9.93,-0.03,-0.01,-0.00,32.39
22022172,1965,1,215628,254343,1.29,0.16,9.94,-0.03,-0.01,-0.00,32.39
22062172,1950,1,215610,254345,1.30,0.13,9.94,-0.03,-0.01,-0.00,32.39
22102169,1933,1,215568,254376,1.31,0.15,9.91,-0.03,-0.01,-0.00,32.39
22142172,1929,1,215575,254461,1.28,0.13,9.89,-0.03,-0.01,-0.00,32.39
22182172,1917,1,215657,254558,1.28,0.16,9.89,-0.03,-0.01,-0.00,32.39
22222172,1922,1,215722,254671,1.27,0.14,9.92,-0.03,-0.01,-0.00,32.39
22260172,2001,1,215742,254714,1.28,0.13,9.91,-0.03,-0.01,-0.00,32.39
22300172,2032,1,215746,254748,1.29,0.12,9.93,-0.03,-0.01,-0.00,32.39
22340172,2032,1,215757,254853,1.30,0.16,9.92,-0.03,-0.01,-0.00,32.39
22380172,2071,1,215775,254857,1.28,0.15,9.93,-0.03,-0.01,-0.00,32.39
22420172,2053,1,215865,255097,1.29,0.14,9.92,-0.03,-0.01,-0.00,32.39
22460858,1978,1,215994,255203,1.28,0.13,9.94,-0.03,-0.00,-0.00,32.25
22501172,1968,1,216078,255363,1.28,0.13,9.93,-0.03,-0.00,-0.01,32.25
22541172,1965,1,216163,255488,1.30,0.16,9.93,-0.03,-0.01,-0.01,32.25
22581172,1946,1,216138,255655,1.28,0.14,9.92,-0.03,-0.01,-0.00,32.25
22621171,1962,1,216198,255767,1.27,0.14,9.92,-0.03,-0.01,-0.01,32.25
22661172,1971,1,216184,255833,1.29,0.13,9.92,-0.03,-0.01,-0.00,32.25
22701172,1968,1,216231,255888,1.29,0.15,9.91,-0.03,-0.02,-0.00,32.25
22741172,1954,1,216202,255987,1.29,0.14,9.94,-0.03,-0.01,-0.00,32.25
22781172,1959,1,216188,255986,1.29,0.14,9.92,-0.03,-0.01,-0.00,32.25
22821172,1949,1,216120,255656,1.29,0.13,9.92,-0.03,-0.02,-0.00,32.25
22861171,1959,1,215970,255342,1.28,0.13,9.92,-0.03,-0.02,-0.00,32.25
22901210,1955,1,215845,255176,1.30,0.14,9.94,-0.03,-0.02,-0.00,32.25
22941172,1953,1,215780,255134,1.30,0.14,9.93,-0.03,-0.01,-0.00,32.25
22981172,1952,1,215731,255150,1.31,0.16,9.92,-0.03,-0.01,-0.00,32.25
23021179,1966,1,215753,255102,1.29,0.15,9.94,-0.03,-0.01,-0.01,32.25
23061172,1941,1,215657,255196,1.30,0.17,9.92,-0.03,-0.01,-0.00,32.25
23101210,1952,1,215671,255171,1.28,0.13,9.90,-0.03,-0.01,-0.00,32.25
23141169,1962,1,215653,255270,1.29,0.15,9.91,-0.03,-0.01,-0.00,32.25
23181172,1951,1,215704,255412,1.30,0.16,9.93,-0.03,-0.01,-0.01,32.25
23221172,1982,1,215799,255594,1.30,0.15,9.94,-0.03,-0.00,-0.00,32.25
23261172,1968,1,215940,255830,1.29,0.15,9.93,-0.04,-0.00,-0.01,32.25
23301172,1987,1,215970,255997,1.29,0.12,9.92,-0.03,-0.01,-0.00,32.25
23341172,1968,1,216049,256208,1.26,0.16,9.92,-0.03,-0.01,-0.00,32.25
23381172,1971,1,216076,256285,1.29,0.14,9.92,-0.03,-0.01,-0.00,32.25
23421172,1951,1,216116,256413,1.27,0.14,9.92,-0.03,-0.01,-0.00,32.25
23461859,1936,1,216136,256550,1.31,0.14,9.89,-0.03,-0.01,-0.00,32.19
23500172,1984,1,216234,256702,1.28,0.13,9.91,-0.03,-0.01,-0.00,32.19
23540172,1974,1,216253,256826,1.28,0.14,9.90,-0.03,-0.01,-0.00,32.19
23580172,1968,1,216306,256887,1.28,0.14,9.93,-0.03,-0.01,-0.00,32.19
23620209,1984,1,216331,256888,1.25,0.16,9.92,-0.03,-0.01,-0.00,32.19
23660172,2009,1,216286,256699,1.29,0.14,9.92,-0.03,-0.01,-0.00,32.19
23700172,1990,1,216211,256457,1.27,0.13,9.91,-0.03,-0.01,-0.00,32.19
23741172,1983,1,216115,256330,1.28,0.15,9.92,-0.03,-0.01,-0.00,32.19
23781172,1967,1,216081,256374,1.28,0.15,9.94,-0.03,-0.01,-0.00,32.19
23821172,1978,1,216130,256310,1.28,0.14,9.94,-0.03,-0.01,-0.00,32.19
23861172,1984,1,216116,256266,1.28,0.13,9.93,-0.03,-0.01,-0.00,32.19
23901171,1978,1,216144,256318,1.28,0.14,9.90,-0.03,-0.01,-0.00,32.19
23941169,1970,1,216126,256312,1.29,0.13,9.95,-0.03,-0.01,-0.00,32.19
23981172,1977,1,216126,256306,1.28,0.14,9.92,-0.03,-0.01,-0.00,32.19
24021179,1978,1,216135,256321,1.26,0.12,9.94,-0.03,-0.01,-0.00,32.19
24061172,1964,1,216116,256403,1.30,0.15,9.92,-0.03,-0.01,-0.00,32.19
24101172,1957,1,216109,256503,1.28,0.12,9.92,-0.03,-0.01,-0.00,32.19
24141172,1946,1,216156,256561,1.27,0.14,9.90,-0.03,-0.01,-0.01,32.19
24181172,1953,1,216113,256609,1.28,0.15,9.93,-0.03,-0.01,-0.00,32.19
24221172,1966,1,216138,256753,1.29,0.15,9.92,-0.03,-0.01,-0.01,32.19
24261172,1941,1,216131,256778,1.29,0.12,9.91,-0.03,-0.01,-0.00,32.19
24301172,1959,1,216141,256858,1.28,0.14,9.92,-0.03,-0.01,-0.00,32.19
24341172,1952,1,216164,256894,1.27,0.15,9.93,-0.03,-0.01,-0.00,32.19
24381172,1975,1,216159,256986,1.28,0.13,9.91,-0.03,-0.01,-0.00,32.19
24421172,1967,1,216161,257065,1.29,0.14,9.92,-0.03,-0.01,-0.00,32.19
24461858,1932,1,216248,257079,1.30,0.14,9.94,-0.03,-0.01,-0.00,32.33
24500172,1979,1,216186,256882,1.29,0.15,9.91,-0.03,-0.01,-0.00,32.33
24540230,1991,1,216068,256665,1.30,0.13,9.93,-0.03,-0.01,-0.00,32.33
24580169,1984,1,216013,256507,1.30,0.14,9.91,-0.03,-0.01,-0.00,32.33
24620171,2007,1,215973,256514,1.29,0.14,9.94,-0.03,-0.01,-0.00,32.33
24660172,1970,1,215902,256407,1.30,0.14,9.94,-0.03,-0.02,-0.00,32.33
24700171,1969,1,215820,256443,1.28,0.16,9.91,-0.03,-0.01,-0.01,32.33
24740195,1970,1,215844,256487,1.31,0.15,9.92,-0.03,-0.01,-0.01,32.33
24780172,1959,1,215860,256533,1.29,0.13,9.91,-0.03,-0.01,-0.00,32.33
24820172,1965,1,215830,256558,1.29,0.15,9.91,-0.03,-0.01,-0.00,32.33
24860172,1968,1,215840,256589,1.30,0.13,9.92,-0.03,-0.01,-0.01,32.33
24900172,1967,1,215900,256637,1.31,0.15,9.93,-0.03,-0.01,-0.00,32.33
24940172,1987,1,215873,256701,1.30,0.13,9.93,-0.03,-0.01,-0.00,32.33
24980169,1974,1,215893,256748,1.30,0.14,9.93,-0.03,-0.01,-0.00,32.33
25020171,1979,1,215919,256773,1.30,0.12,9.93,-0.03,-0.01,-0.00,32.33
25060172,1984,1,215910,256790,1.28,0.15,9.92,-0.03,-0.01,-0.00,32.33
25100172,1980,1,215849,256820,1.29,0.13,9.93,-0.03,-0.01,-0.00,32.33
25140172,1998,1,215864,256877,1.31,0.15,9.94,-0.03,-0.01,-0.01,32.33
25180171,1985,1,215915,256960,1.30,0.13,9.90,-0.03,-0.01,-0.00,32.33
25220169,2000,1,215944,257076,1.29,0.15,9.91,-0.03,-0.01,-0.00,32.33
25260171,1989,1,215979,257106,1.30,0.13,9.92,-0.03,-0.01,-0.00,32.33
25300169,1987,1,215970,257146,1.30,0.15,9.90,-0.03,-0.01,-0.00,32.33
25340172,1978,1,215938,256764,1.30,0.13,9.93,-0.03,-0.01,-0.00,32.33
25380169,1966,1,215740,256374,1.29,0.14,9.95,-0.03,-0.01,-0.00,32.33
25420172,1968,1,215683,256163,1.28,0.15,9.94,-0.03,-0.01,-0.00,32.33
25460172,1977,1,215639,256137,1.29,0.16,9.93,-0.03,-0.01,-0.00,32.33
25500858,1943,1,215629,256079,1.30,0.15,9.92,-0.03,-0.01,-0.00,32.33
25539169,2029,1,215602,256165,1.30,0.13,9.93,-0.03,-0.01,-0.00,32.33
25579172,2042,1,215643,256203,1.27,0.12,9.90,-0.03,-0.01,-0.00,32.33
25619169,2054,1,215669,256257,1.29,0.15,9.93,-0.03,-0.01,-0.00,32.33
25659172,2027,1,215617,256325,1.29,0.17,9.94,-0.03,-0.01,-0.00,32.33
25699172,2043,1,215665,256385,1.28,0.15,9.94,-0.03,-0.01,-0.00,32.33
25739172,2059,1,215674,256472,1.28,0.16,9.93,-0.03,-0.01,-0.00,32.33
25779172,2037,1,215680,256528,1.30,0.15,9.92,-0.03,-0.01,-0.00,32.33
25819172,2031,1,215665,256624,1.30,0.13,9.93,-0.03,-0.01,-0.01,32.33
25859172,2043,1,215711,256690,1.30,0.15,9.90,-0.03,-0.01,-0.00,32.33
25899172,2047,1,215667,256721,1.31,0.13,9.90,-0.03,-0.01,-0.00,32.33
25939172,2035,1,215702,256786,1.30,0.13,9.91,-0.03,-0.01,-0.01,32.33
25979172,2011,1,215706,256907,1.30,0.15,9.92,-0.03,-0.01,-0.01,32.33
26019172,2011,1,215698,257007,1.28,0.15,9.93,-0.03,-0.01,-0.00,32.33
26059172,2038,1,215730,257115,1.30,0.14,9.92,-0.03,-0.01,-0.00,32.33
26099169,2025,1,215699,257208,1.30,0.16,9.92,-0.03,-0.01,-0.00,32.33
26139172,2032,1,215719,257005,1.28,0.15,9.89,-0.03,-0.01,-0.00,32.33
26179187,2034,1,215561,256504,1.29,0.14,9.94,-0.03,-0.01,-0.00,32.33
26219171,2000,1,215424,256289,1.30,0.13,9.91,-0.03,-0.01,-0.00,32.33
26259169,2030,1,215345,256245,1.29,0.15,9.91,-0.03,-0.01,-0.00,32.33
26299172,2020,1,215324,256186,1.29,0.14,9.94,-0.03,-0.01,-0.00,32.33
26339172,2011,1,215283,256180,1.31,0.15,9.90,-0.03,-0.01,-0.00,32.33
26379175,2001,1,215251,256182,1.28,0.12,9.93,-0.03,-0.01,-0.00,32.33
26419172,2008,1,215311,256210,1.29,0.14,9.92,-0.03,-0.01,-0.00,32.33
26459171,2015,1,215308,256151,1.28,0.15,9.91,-0.03,-0.01,-0.00,32.33
26499172,2026,1,215285,256177,1.29,0.14,9.95,-0.03,-0.01,-0.00,32.33
26539858,2011,1,215342,256194,1.29,0.15,9.90,-0.03,-0.01,-0.00,32.25
26580201,2000,1,215348,256251,1.29,0.14,9.90,-0.03,-0.01,-0.00,32.25
26620172,1999,1,215382,256333,1.28,0.15,9.96,-0.03,-0.01,-0.00,32.25
26660172,2000,1,215401,256394,1.30,0.15,9.94,-0.03,-0.01,-0.00,32.25
26700172,1994,1,215482,256445,1.28,0.14,9.93,-0.03,-0.01,-0.00,32.25
26740172,1971,1,215520,256506,1.28,0.14,9.93,-0.03,-0.01,-0.00,32.25
26780172,1981,1,215533,256539,1.27,0.15,9.92,-0.03,-0.01,-0.00,32.25
26819172,1994,1,215567,256677,1.31,0.15,9.92,-0.03,-0.01,-0.00,32.25
26859172,1997,1,215578,256798,1.29,0.15,9.92,-0.03,-0.01,-0.00,32.25
26899172,1989,1,215617,256829,1.29,0.12,9.91,-0.03,-0.01,-0.00,32.25
26939172,1989,1,215544,256419,1.27,0.14,9.94,-0.03,-0.01,-0.00,32.25
26979172,1973,1,215399,256034,1.27,0.15,9.92,-0.03,-0.01,-0.00,32.25
27019171,1979,1,215336,255897,1.29,0.13,9.93,-0.03,-0.01,-0.01,32.25
27059172,1971,1,215249,255910,1.28,0.13,9.93,-0.03,-0.01,-0.00,32.25
27099172,1954,1,215218,255923,1.30,0.14,9.93,-0.03,-0.01,-0.00,32.25
27139172,1977,1,215246,255963,1.29,0.14,9.90,-0.03,-0.01,-0.00,32.25
27179172,1993,1,215284,256030,1.28,0.12,9.92,-0.03,-0.01,-0.00,32.25
27219172,1943,1,215302,256075,1.29,0.13,9.92,-0.03,-0.01,-0.00,32.25
27259171,1936,1,215322,256107,1.29,0.15,9.93,-0.03,-0.01,-0.00,32.25
27299172,1943,1,215336,256167,1.28,0.16,9.89,-0.03,-0.01,-0.00,32.25
27339171,1957,1,215348,256267,1.29,0.14,9.90,-0.03,-0.01,-0.00,32.25
27379169,1943,1,215337,256328,1.28,0.13,9.90,-0.03,-0.01,-0.00,32.25
27419172,1946,1,215371,256411,1.31,0.15,9.93,-0.03,-0.01,-0.00,32.25
27459172,1962,1,215357,256492,1.27,0.15,9.94,-0.03,-0.01,-0.01,32.25
27499171,1968,1,215362,256565,1.29,0.12,9.94,-0.03,-0.01,-0.00,32.25
27539172,1967,1,215397,256677,1.30,0.13,9.94,-0.03,-0.01,-0.00,32.25
27579858,1937,1,215353,256702,1.30,0.15,9.91,-0.03,-0.01,-0.00,32.35
27620169,1939,1,215352,256764,1.30,0.16,9.91,-0.03,-0.01,-0.00,32.35
27660171,1953,1,215305,256325,1.30,0.12,9.92,-0.03,-0.01,-0.00,32.35
27700169,1949,1,215077,255794,1.28,0.13,9.94,-0.03,-0.01,-0.01,32.35
27740171,1968,1,214954,255596,1.30,0.13,9.90,-0.03,-0.01,-0.00,32.35
27780169,1994,1,214900,255584,1.30,0.12,9.91,-0.03,-0.01,-0.00,32.35
27819175,2018,1,215000,255577,1.31,0.15,9.92,-0.03,-0.01,-0.00,32.35
27859172,2000,1,214946,255599,1.29,0.14,9.92,-0.03,-0.01,-0.00,32.35
27899172,1984,1,214981,255666,1.30,0.14,9.91,-0.03,-0.01,-0.00,32.35
27939172,1982,1,214967,255599,1.29,0.15,9.93,-0.03,-0.01,-0.00,32.35
27979172,1991,1,215003,255596,1.29,0.17,9.92,-0.03,-0.01,-0.01,32.35
28019200,1990,1,214964,255585,1.28,0.14,9.95,-0.03,-0.01,-0.00,32.35
28059172,1987,1,215006,255650,1.28,0.13,9.92,-0.03,-0.01,-0.00,32.35
28099172,1977,1,215000,255749,1.29,0.14,9.93,-0.03,-0.01,-0.00,32.35
28139172,1978,1,215071,255791,1.29,0.13,9.93,-0.03,-0.01,-0.00,32.35
28179172,1984,1,215094,255916,1.29,0.15,9.92,-0.03,-0.01,-0.00,32.35
28219188,1960,1,215126,255953,1.29,0.14,9.95,-0.03,-0.01,-0.00,32.35
28259172,1945,1,215160,256006,1.27,0.14,9.92,-0.03,-0.01,-0.00,32.35
28299172,1968,1,215218,256065,1.30,0.14,9.90,-0.03,-0.01,-0.00,32.35
28339169,1979,1,215239,255969,1.31,0.14,9.89,-0.03,-0.01,-0.00,32.35
28379172,1981,1,215065,255270,1.31,0.12,9.92,-0.03,-0.01,-0.00,32.35
28419172,1987,1,214788,254679,1.29,0.13,9.92,-0.03,-0.01,-0.00,32.35
28459172,1981,1,214691,254413,1.28,0.14,9.91,-0.03,-0.01,-0.00,32.35
28499172,1983,1,214625,254342,1.29,0.13,9.90,-0.03,-0.01,-0.00,32.35
28539172,1968,1,214609,254335,1.30,0.15,9.90,-0.03,-0.01,-0.00,32.35
28579856,1957,1,214591,254401,1.29,0.14,9.90,-0.03,-0.01,-0.00,32.21
28618172,2013,1,214621,254418,1.26,0.11,9.91,-0.03,-0.01,-0.00,32.21
28658172,2021,1,214600,254472,1.30,0.14,9.92,-0.03,-0.01,-0.00,32.21
28698172,2032,1,214624,254471,1.27,0.13,9.91,-0.03,-0.01,-0.00,32.21
28738172,2021,1,214624,254516,1.31,0.16,9.90,-0.03,-0.01,-0.00,32.21
28778172,2032,1,214658,254620,1.29,0.15,9.93,-0.03,-0.01,-0.00,32.21
28818172,2032,1,214621,254722,1.28,0.15,9.96,-0.03,-0.01,-0.00,32.21
28858172,2005,1,214708,254858,1.30,0.14,9.95,-0.03,-0.01,-0.00,32.21
28898169,2019,1,214695,254969,1.28,0.14,9.92,-0.03,-0.01,-0.00,32.21
28938172,2032,1,214728,255050,1.29,0.15,9.93,-0.03,-0.01,-0.00,32.21
28978172,2013,1,214745,255172,1.28,0.14,9.91,-0.03,-0.01,-0.00,32.21
29018172,2031,1,214812,255177,1.30,0.15,9.89,-0.03,-0.01,-0.00,32.21
29058169,2022,1,214802,254749,1.28,0.15,9.91,-0.03,-0.01,-0.01,32.21
29098172,2031,1,214513,254060,1.28,0.14,9.93,-0.03,-0.01,-0.00,32.21
29138172,2017,1,214286,253628,1.30,0.14,9.91,-0.03,-0.01,-0.00,32.21
29178172,1999,1,214250,253526,1.28,0.14,9.93,-0.03,-0.01,-0.00,32.21
29218172,1979,1,214205,253500,1.29,0.14,9.93,-0.03,-0.01,-0.00,32.21
29258172,2000,1,214209,253495,1.30,0.15,9.92,-0.03,-0.01,-0.00,32.21
29298172,1990,1,214265,253598,1.28,0.14,9.91,-0.03,-0.01,-0.00,32.21
29338172,2005,1,214278,253644,1.30,0.14,9.90,-0.03,-0.01,-0.00,32.21
29378169,2000,1,214265,253638,1.29,0.15,9.93,-0.03,-0.01,-0.00,32.21
29418172,2031,1,214287,253669,1.29,0.13,9.91,-0.03,-0.01,-0.00,32.21
29458172,1999,1,214310,253790,1.30,0.14,9.91,-0.03,-0.01,-0.00,32.21
29498172,2012,1,214384,253865,1.30,0.14,9.91,-0.03,-0.01,-0.00,32.21
29538169,2001,1,214432,253925,1.30,0.15,9.93,-0.03,-0.01,-0.00,32.21
29578171,1999,1,214460,254069,1.29,0.15,9.91,-0.03,-0.01,-0.00,32.21
29618859,1970,1,214538,254181,1.29,0.15,9.92,-0.03,-0.01,-0.00,32.13
29659196,1968,1,214587,254272,1.29,0.14,9.92,-0.03,-0.01,-0.00,32.13
29699172,1971,1,214633,254428,1.28,0.14,9.92,-0.03,-0.01,-0.00,32.13
29739172,1977,1,214682,254262,1.29,0.14,9.90,-0.03,-0.01,-0.00,32.13
29779172,1955,1,214574,253509,1.30,0.13,9.93,-0.03,-0.01,-0.00,32.13
29819172,1958,1,214267,252713,1.29,0.13,9.94,-0.03,-0.01,-0.00,32.13
29859193,1957,1,214136,252442,1.29,0.14,9.92,-0.03,-0.01,-0.00,32.13
29899172,1964,1,214107,252358,1.27,0.14,9.91,-0.03,-0.01,-0.00,32.13
29939172,1966,1,214087,252359,1.30,0.14,9.92,-0.03,-0.01,-0.00,32.13
29979171,1968,1,214120,252482,1.29,0.14,9.92,-0.03,-0.01,-0.00,32.13
30019172,1954,1,214136,252587,1.30,0.14,9.91,-0.03,-0.01,-0.00,32.13
30059171,1977,1,214131,252599,1.30,0.15,9.93,-0.03,-0.01,-0.00,32.13
30099172,1953,1,214155,252700,1.29,0.14,9.90,-0.03,-0.01,-0.00,32.13
30139172,1952,1,214163,252770,1.29,0.14,9.93,-0.03,-0.01,-0.00,32.13
30179172,1984,1,214239,252989,1.29,0.14,9.90,-0.03,-0.01,-0.00,32.13
30219171,1962,1,214276,253161,1.29,0.13,9.93,-0.03,-0.01,-0.00,32.13
30259172,1973,1,214364,253305,1.29,0.15,9.93,-0.03,-0.01,-0.00,32.13
30299172,1984,1,214397,253460,1.28,0.13,9.93,-0.03,-0.01,-0.00,32.13
30339172,1984,1,214469,253645,1.30,0.14,9.92,-0.03,-0.01,-0.00,32.13
30379171,1985,1,214534,253831,1.29,0.14,9.93,-0.03,-0.01,-0.00,32.13
30419172,1971,1,214533,253953,1.30,0.14,9.91,-0.03,-0.01,-0.00,32.13
30459171,1973,1,214506,253631,1.30,0.14,9.93,-0.03,-0.01,-0.00,32.13
30499172,1959,1,214258,252763,1.28,0.14,9.91,-0.03,-0.01,-0.00,32.13
30539172,1959,1,214014,252218,1.28,0.15,9.92,-0.03,-0.01,-0.00,32.13
30579172,1966,1,213917,252179,1.30,0.14,9.92,-0.03,-0.01,-0.00,32.13
30619858,1948,1,214031,252230,1.27,0.13,9.94,-0.03,-0.01,-0.00,31.89
30658172,1983,1,214079,252411,1.29,0.15,9.91,-0.03,-0.01,-0.00,31.89
30698172,1978,1,214173,252595,1.29,0.14,9.91,-0.03,-0.01,-0.00,31.89
30738172,1987,1,214257,252775,1.30,0.13,9.94,-0.03,-0.01,-0.00,31.89
30778172,1978,1,214283,252881,1.29,0.14,9.91,-0.03,-0.01,-0.00,31.89
30818172,1977,1,214347,252963,1.29,0.16,9.92,-0.03,-0.01,-0.00,31.89
30858171,1990,1,214373,253182,1.28,0.14,9.93,-0.03,-0.01,-0.00,31.89
30898172,1982,1,214521,253347,1.28,0.14,9.88,-0.03,-0.01,-0.00,31.89
30938172,1993,1,214587,253590,1.31,0.12,9.93,-0.03,-0.01,-0.01,31.89
30978172,1999,1,214664,253784,1.29,0.16,9.93,-0.03,-0.01,-0.00,31.89
31018171,1998,1,214725,253967,1.28,0.14,9.90,-0.03,-0.01,-0.00,31.89
31058169,1989,1,214788,254124,1.28,0.13,9.94,-0.03,-0.01,-0.00,31.89
31098172,1969,1,214818,254222,1.26,0.16,9.93,-0.03,-0.01,-0.01,31.89
31138172,1971,1,214908,254165,1.29,0.14,9.92,-0.03,-0.01,-0.00,31.89
31178172,1968,1,214763,253333,1.29,0.14,9.91,-0.03,-0.01,-0.01,31.89
31218172,1966,1,214444,252474,1.29,0.14,9.94,-0.03,-0.01,-0.00,31.89
31258172,1973,1,214293,252146,1.28,0.14,9.90,-0.03,-0.01,-0.00,31.89
31298214,1989,1,214305,252155,1.30,0.14,9.93,-0.03,-0.01,-0.00,31.89
31338172,2002,1,214291,252058,1.29,0.14,9.91,-0.03,-0.01,-0.00,31.89
31378172,1982,1,214351,252246,1.29,0.14,9.91,-0.03,-0.01,-0.00,31.89
31418172,1988,1,214382,252414,1.28,0.15,9.93,-0.03,-0.01,-0.00,31.89
31458172,1974,1,214381,252421,1.30,0.13,9.94,-0.03,-0.01,-0.00,31.89
31498223,1970,1,214427,252466,1.30,0.13,9.95,-0.03,-0.01,-0.00,31.89
31538169,1987,1,214438,252593,1.29,0.13,9.91,-0.03,-0.01,-0.00,31.89
31578172,1983,1,214488,252752,1.29,0.15,9.94,-0.03,-0.01,-0.00,31.89
31618172,1989,1,214571,252857,1.29,0.14,9.92,-0.03,-0.01,-0.00,31.89
31658858,1964,1,214574,253095,1.30,0.15,9.94,-0.03,-0.01,-0.00,31.77
31697172,2021,1,214598,253243,1.27,0.12,9.91,-0.03,-0.01,-0.00,31.77
31737172,1996,1,214708,253380,1.30,0.15,9.92,-0.03,-0.01,-0.00,31.77
31777172,2018,1,214730,253508,1.27,0.14,9.93,-0.03,-0.01,-0.00,31.77
31817172,2000,1,214822,253530,1.27,0.15,9.91,-0.03,-0.01,-0.00,31.77
31857172,2000,1,214698,252789,1.29,0.15,9.88,-0.03,-0.01,-0.00,31.77
31897172,1984,1,214319,251762,1.29,0.13,9.95,-0.03,-0.01,-0.00,31.77
31937172,2011,1,214057,251349,1.28,0.14,9.91,-0.03,-0.01,-0.00,31.77
31977172,2017,1,213979,251295,1.29,0.15,9.93,-0.03,-0.01,-0.00,31.77
32017172,2014,1,213937,251263,1.29,0.14,9.92,-0.03,-0.01,-0.00,31.77
32057172,2018,1,213964,251359,1.28,0.14,9.93,-0.03,-0.01,-0.00,31.77
32097172,2018,1,214050,251631,1.27,0.14,9.94,-0.03,-0.01,-0.00,31.77
32137171,2005,1,214077,251741,1.28,0.14,9.89,-0.03,-0.01,-0.00,31.77
32177172,2021,1,214100,251762,1.30,0.13,9.94,-0.03,-0.01,-0.00,31.77
32217172,2011,1,214117,251921,1.30,0.14,9.94,-0.03,-0.01,-0.00,31.77
32257169,2019,1,214210,252110,1.29,0.15,9.94,-0.03,-0.01,-0.00,31.77
32297172,2003,1,214273,252396,1.29,0.16,9.91,-0.03,-0.01,-0.00,31.77
32337172,2011,1,214363,252542,1.30,0.15,9.94,-0.03,-0.01,-0.00,31.77
32377172,2000,1,214449,252794,1.28,0.14,9.90,-0.03,-0.01,-0.00,31.77
32417169,1990,1,214500,252915,1.29,0.15,9.93,-0.03,-0.01,-0.00,31.77
32457172,2002,1,214518,253099,1.29,0.15,9.93,-0.03,-0.01,-0.00,31.77
32497172,2000,1,214610,253266,1.31,0.15,9.92,-0.03,-0.01,-0.00,31.77
32537172,1984,1,214660,252987,1.28,0.15,9.92,-0.03,-0.01,-0.00,31.77
32577172,1999,1,214386,251926,1.29,0.13,9.91,-0.03,-0.01,-0.01,31.77
32617172,2000,1,214059,251029,1.28,0.14,9.90,-0.03,-0.01,-0.00,31.77
32657172,1999,1,213915,250752,1.27,0.14,9.92,-0.03,-0.01,-0.00,31.77
32697858,1968,1,213892,250733,1.29,0.14,9.92,-0.03,-0.01,-0.00,31.95
32738172,1963,1,213840,250804,1.30,0.15,9.91,-0.03,-0.01,-0.00,31.95
32778172,1963,1,213892,250962,1.30,0.13,9.91,-0.03,-0.01,-0.00,31.95
32818169,1967,1,214061,251113,1.30,0.14,9.90,-0.03,-0.01,-0.00,31.95
32858171,1966,1,214031,251181,1.31,0.13,9.91,-0.03,-0.01,-0.00,31.95
32898172,1984,1,214110,251248,1.29,0.15,9.92,-0.03,-0.01,-0.00,31.95
32938177,1984,1,214189,251314,1.30,0.14,9.92,-0.03,-0.01,-0.00,31.95
32978169,1982,1,214251,251583,1.30,0.14,9.95,-0.03,-0.01,-0.00,31.95
33018171,1966,1,214310,251778,1.29,0.15,9.91,-0.03,-0.01,-0.00,31.95
33058172,1961,1,214427,252076,1.27,0.15,9.91,-0.03,-0.01,-0.00,31.95
33098172,1968,1,214554,252299,1.29,0.16,9.91,-0.03,-0.01,-0.00,31.95
33138211,1979,1,214558,252481,1.29,0.16,9.92,-0.03,-0.01,-0.00,31.95
33178172,1978,1,214605,252766,1.31,0.15,9.91,-0.03,-0.01,-0.00,31.95
33218172,1979,1,214741,252898,1.30,0.15,9.91,-0.03,-0.01,-0.00,31.95
33258172,1983,1,214739,253072,1.30,0.15,9.95,-0.03,-0.01,-0.00,31.95
33298169,1968,1,214689,252533,1.28,0.14,9.90,-0.03,-0.01,-0.00,31.95
33338200,1955,1,214329,251262,1.28,0.14,9.91,-0.03,-0.01,-0.00,31.95
33378172,1971,1,213995,250695,1.27,0.14,9.92,-0.03,-0.01,-0.00,31.95
33418171,1975,1,214024,250583,1.29,0.14,9.91,-0.03,-0.01,-0.00,31.95
33458172,1971,1,213979,250651,1.31,0.14,9.94,-0.03,-0.01,-0.00,31.95
33498171,1988,1,214043,250811,1.29,0.15,9.90,-0.03,-0.01,-0.00,31.95
33538172,1974,1,214088,251129,1.28,0.15,9.91,-0.03,-0.01,-0.00,31.95
33578172,1982,1,214233,251280,1.28,0.14,9.92,-0.03,-0.01,-0.00,31.95
33618172,1958,1,214202,251425,1.29,0.15,9.92,-0.03,-0.01,-0.00,31.95
33658171,1963,1,214167,251627,1.29,0.14,9.91,-0.03,-0.01,-0.00,31.95
33698858,1957,1,214386,251844,1.29,0.14,9.92,-0.03,-0.01,-0.00,31.91
33737172,1968,1,214447,252111,1.30,0.15,9.93,-0.03,-0.01,-0.00,31.91
33777169,1959,1,214590,252371,1.30,0.15,9.92,-0.03,-0.01,-0.00,31.91
33817171,1970,1,214697,252711,1.30,0.13,9.93,-0.03,-0.01,-0.01,31.91
33857172,1977,1,214843,252899,1.30,0.14,9.93,-0.03,-0.01,-0.00,31.91
33897171,1981,1,214942,253173,1.29,0.13,9.91,-0.03,-0.01,-0.00,31.91
33937172,1979,1,215021,253482,1.29,0.15,9.90,-0.03,-0.01,-0.00,31.91
33977172,1989,1,215139,253675,1.28,0.13,9.96,-0.03,-0.01,-0.00,31.91
34017172,1975,1,215221,253740,1.29,0.13,9.94,-0.03,-0.01,-0.00,31.91
34057172,1984,1,215093,252967,1.29,0.13,9.94,-0.03,-0.01,-0.00,31.91
34097172,1988,1,214633,251721,1.28,0.15,9.92,-0.03,-0.01,-0.00,31.91
34137172,1973,1,214456,251314,1.28,0.14,9.91,-0.03,-0.01,-0.00,31.91
34177172,1980,1,214458,251529,1.30,0.14,9.91,-0.03,-0.01,-0.00,31.91
34217172,2000,1,214551,251599,1.30,0.12,9.92,-0.03,-0.01,-0.00,31.91
34257169,1965,1,214619,251952,1.30,0.16,9.91,-0.03,-0.01,-0.00,31.91
34297171,1984,1,214787,252232,1.28,0.15,9.92,-0.03,-0.01,-0.00,31.91
34337172,1979,1,214866,252340,1.29,0.14,9.91,-0.03,-0.01,-0.01,31.91
34377172,1970,1,214857,252424,1.30,0.13,9.93,-0.03,-0.01,-0.00,31.91
34417169,1963,1,214909,252479,1.29,0.14,9.93,-0.03,-0.01,-0.00,31.91
34457172,1968,1,214973,252723,1.28,0.14,9.92,-0.03,-0.01,-0.00,31.91
34497172,1971,1,215055,252915,1.29,0.15,9.92,-0.03,-0.01,-0.00,31.91
34537172,1964,1,215094,253195,1.28,0.14,9.93,-0.03,-0.01,-0.00,31.91
34577188,1968,1,215275,253394,1.29,0.14,9.93,-0.03,-0.01,-0.01,31.91
34617172,1966,1,215317,253546,1.30,0.12,9.93,-0.03,-0.01,-0.00,31.91
34657172,1985,1,215372,253733,1.29,0.15,9.92,-0.03,-0.01,-0.00,31.91
34697171,1991,1,215454,253857,1.28,0.14,9.93,-0.03,-0.01,-0.00,31.91
34737858,1965,1,215491,253601,1.29,0.14,9.92,-0.03,-0.01,-0.01,31.95
34776197,2032,1,215234,252290,1.28,0.13,9.93,-0.03,-0.01,-0.01,31.95
34816172,2033,1,214851,251273,1.28,0.12,9.91,-0.03,-0.01,-0.00,31.95
34856172,2042,1,214629,251036,1.30,0.14,9.92,-0.03,-0.01,-0.01,31.95
34896172,2035,1,214674,251182,1.31,0.15,9.90,-0.03,-0.01,-0.01,31.95
34936172,2030,1,214707,251345,1.30,0.14,9.95,-0.03,-0.01,-0.00,31.95
34976187,2004,1,214800,251597,1.29,0.13,9.91,-0.03,-0.01,-0.00,31.95
35016172,2023,1,214796,251777,1.30,0.13,9.93,-0.03,-0.01,-0.00,31.95
35056169,2005,1,214875,251749,1.31,0.15,9.91,-0.03,-0.01,-0.00,31.95
35096172,2001,1,214814,251908,1.30,0.14,9.95,-0.03,-0.01,-0.00,31.95
35136172,2012,1,214914,252077,1.29,0.14,9.93,-0.03,-0.01,-0.01,31.95
35176172,2027,1,215037,252237,1.28,0.14,9.93,-0.03,-0.01,-0.00,31.95
35216172,2019,1,215012,252556,1.28,0.16,9.94,-0.03,-0.01,-0.00,31.95
35256172,2006,1,215137,252837,1.30,0.15,9.92,-0.03,-0.01,-0.00,31.95
35296172,2007,1,215171,253005,1.29,0.14,9.91,-0.03,-0.01,-0.00,31.95
35336172,2002,1,215227,253238,1.28,0.14,9.91,-0.03,-0.01,-0.00,31.95
35376172,2011,1,215240,253432,1.29,0.14,9.93,-0.03,-0.01,-0.00,31.95
35416172,2018,1,215349,253538,1.28,0.15,9.93,-0.03,-0.01,-0.00,31.95
35456172,2021,1,215372,253073,1.28,0.13,9.93,-0.03,-0.01,-0.00,31.95
35496171,2030,1,214997,251601,1.27,0.15,9.92,-0.03,-0.01,-0.00,31.95
35536172,2009,1,214505,250686,1.30,0.13,9.91,-0.03,-0.01,-0.00,31.95
35576172,1997,1,214379,250453,1.28,0.12,9.93,-0.03,-0.01,-0.00,31.95
35616172,1999,1,214379,250558,1.29,0.14,9.91,-0.03,-0.01,-0.00,31.95
35656171,1998,1,214397,250635,1.30,0.13,9.90,-0.03,-0.01,-0.00,31.95
35696169,2004,1,214501,250896,1.30,0.15,9.90,-0.03,-0.01,-0.00,31.95
35736172,2013,1,214497,251124,1.27,0.14,9.91,-0.03,-0.01,-0.01,31.95
35776858,1970,1,214626,251149,1.30,0.15,9.93,-0.03,-0.01,-0.00,31.97
35816171,2001,1,214554,251281,1.30,0.14,9.93,-0.03,-0.01,-0.00,31.97
35856169,1996,1,214691,251396,1.29,0.14,9.91,-0.03,-0.01,-0.00,31.97
35896171,1980,1,214762,251682,1.30,0.15,9.92,-0.03,-0.01,-0.00,31.97
35936172,2019,1,214840,251943,1.28,0.15,9.93,-0.03,-0.01,-0.00,31.97
35976172,1991,1,214979,252120,1.29,0.15,9.93,-0.03,-0.01,-0.00,31.97
36016172,2013,1,215078,252357,1.29,0.15,9.92,-0.03,-0.01,-0.00,31.97
36056172,2001,1,215087,252568,1.29,0.13,9.92,-0.03,-0.01,-0.01,31.97
36096172,2010,1,215136,252793,1.30,0.16,9.94,-0.03,-0.01,-0.01,31.97
36136171,2003,1,215228,252844,1.28,0.15,9.91,-0.03,-0.01,-0.00,31.97
36176172,1983,1,215371,252593,1.29,0.14,9.90,-0.03,-0.01,-0.00,31.97
36216192,1983,1,214934,251022,1.30,0.13,9.92,-0.03,-0.01,-0.00,31.97
36256169,1990,1,214452,249875,1.29,0.14,9.93,-0.03,-0.01,-0.00,31.97
36296172,1973,1,214283,249628,1.29,0.14,9.90,-0.03,-0.01,-0.01,31.97
36336172,1971,1,214317,249769,1.29,0.14,9.92,-0.03,-0.01,-0.00,31.97
36376172,1988,1,214348,249887,1.30,0.14,9.92,-0.03,-0.01,-0.00,31.97
36416186,1983,1,214433,250156,1.29,0.15,9.93,-0.03,-0.01,-0.00,31.97
36456172,2000,1,214538,250350,1.29,0.14,9.92,-0.03,-0.01,-0.00,31.97
36496172,1973,1,214519,250488,1.30,0.13,9.91,-0.03,-0.01,-0.00,31.97
36536172,1977,1,214531,250567,1.30,0.15,9.92,-0.03,-0.01,-0.00,31.97
36576172,1996,1,214623,250724,1.29,0.16,9.91,-0.03,-0.01,-0.01,31.97
36616172,1995,1,214699,251070,1.29,0.15,9.92,-0.03,-0.01,-0.00,31.97
36656172,2000,1,214854,251349,1.29,0.12,9.91,-0.03,-0.01,-0.00,31.97
36696171,1983,1,214989,251702,1.30,0.16,9.90,-0.03,-0.01,-0.00,31.97
36736169,1988,1,215100,252003,1.27,0.13,9.91,-0.03,-0.01,-0.00,31.97
36776172,1994,1,215208,252186,1.30,0.15,9.93,-0.03,-0.01,-0.00,31.97
36816859,1961,1,215214,252558,1.28,0.12,9.93,-0.03,-0.01,-0.00,31.99
36856172,1968,1,215341,252838,1.28,0.15,9.92,-0.03,-0.01,-0.00,31.99
36896172,1962,1,215372,252901,1.27,0.14,9.90,-0.03,-0.01,-0.00,31.99
36936172,1974,1,215182,251434,1.28,0.14,9.92,-0.03,-0.01,-0.00,31.99
36976172,1968,1,214671,250156,1.28,0.15,9.90,-0.03,-0.01,-0.00,31.99
37016171,1972,1,214440,249893,1.30,0.13,9.91,-0.03,-0.01,-0.01,31.99
37056172,1979,1,214436,250014,1.29,0.15,9.90,-0.03,-0.01,-0.00,31.99
37096171,1980,1,214489,250276,1.28,0.16,9.89,-0.03,-0.01,-0.00,31.99
37136172,1969,1,214576,250604,1.30,0.14,9.93,-0.03,-0.01,-0.00,31.99
37176172,1967,1,214697,250857,1.30,0.15,9.92,-0.03,-0.02,-0.00,31.99
37216172,1968,1,214734,250979,1.31,0.15,9.90,-0.03,-0.01,-0.00,31.99
37256172,1984,1,214736,251165,1.30,0.14,9.91,-0.03,-0.01,-0.00,31.99
37296169,1986,1,214785,251490,1.29,0.13,9.93,-0.03,-0.01,-0.00,31.99
37336172,1980,1,214971,251815,1.28,0.15,9.91,-0.03,-0.01,-0.00,31.99
37376172,1973,1,215046,252195,1.29,0.13,9.94,-0.03,-0.01,-0.00,31.99
37416172,1985,1,215273,252497,1.26,0.14,9.92,-0.03,-0.01,-0.01,31.99
37456172,1968,1,215388,252856,1.29,0.15,9.92,-0.03,-0.01,-0.00,31.99
37496172,1972,1,215441,253193,1.30,0.14,9.92,-0.03,-0.01,-0.00,31.99
37536169,1968,1,215542,253514,1.30,0.15,9.89,-0.03,-0.01,-0.00,31.99
37576171,1942,1,215709,253633,1.30,0.14,9.91,-0.03,-0.01,-0.00,31.99
37616169,1954,1,215660,252665,1.28,0.13,9.90,-0.03,-0.01,-0.00,31.99
37656172,1958,1,215081,251051,1.30,0.15,9.92,-0.03,-0.01,-0.00,31.99
37696172,1968,1,214741,250507,1.31,0.14,9.90,-0.03,-0.01,-0.00,31.99
37736172,1984,1,214669,250615,1.27,0.15,9.93,-0.03,-0.01,-0.00,31.99
37776172,1984,1,214666,250827,1.29,0.15,9.93,-0.03,-0.01,-0.00,31.99
37816858,1956,1,214793,251025,1.30,0.13,9.91,-0.03,-0.01,-0.00,31.89
37856169,1988,1,214906,251276,1.29,0.13,9.90,-0.03,-0.01,-0.00,31.89
37896172,1975,1,214945,251241,1.28,0.14,9.90,-0.03,-0.01,-0.00,31.89
37936172,1975,1,214915,251232,1.31,0.13,9.91,-0.03,-0.01,-0.00,31.89
37976171,1973,1,214906,251356,1.30,0.14,9.92,-0.03,-0.01,-0.00,31.89
38016169,1971,1,214962,251675,1.29,0.15,9.90,-0.03,-0.01,-0.01,31.89
38056214,1984,1,215023,251981,1.30,0.13,9.94,-0.03,-0.01,-0.00,31.89
38096169,1981,1,215125,252244,1.28,0.14,9.91,-0.03,-0.01,-0.00,31.89
38136171,1953,1,215190,252479,1.28,0.14,9.91,-0.03,-0.01,-0.00,31.89
38176172,1969,1,215229,252661,1.31,0.13,9.90,-0.03,-0.01,-0.00,31.89
38216172,1966,1,215418,252798,1.30,0.15,9.93,-0.03,-0.01,-0.00,31.89
38256212,1952,1,215395,252711,1.30,0.14,9.93,-0.03,-0.01,-0.00,31.89
38296171,1958,1,215072,251086,1.29,0.14,9.91,-0.03,-0.01,-0.00,31.89
38336172,1967,1,214482,249743,1.28,0.16,9.92,-0.03,-0.01,-0.00,31.89
38376172,1981,1,214221,249486,1.30,0.12,9.91,-0.03,-0.01,-0.00,31.89
38416172,1973,1,214192,249652,1.30,0.17,9.92,-0.03,-0.01,-0.00,31.89
38456171,1965,1,214292,249846,1.30,0.15,9.93,-0.03,-0.01,-0.00,31.89
38496169,1956,1,214392,250252,1.29,0.16,9.92,-0.03,-0.01,-0.00,31.89
38536172,1979,1,214471,250631,1.28,0.12,9.93,-0.03,-0.01,-0.00,31.89
38576172,1970,1,214517,250678,1.29,0.12,9.94,-0.03,-0.01,-0.01,31.89
38616172,1979,1,214534,250772,1.30,0.12,9.90,-0.03,-0.01,-0.00,31.89
38656169,1970,1,214568,250920,1.30,0.14,9.92,-0.03,-0.01,-0.00,31.89
38696172,1980,1,214684,251233,1.30,0.13,9.93,-0.03,-0.01,-0.00,31.89
38736169,1970,1,214754,251491,1.30,0.14,9.92,-0.03,-0.01,-0.00,31.89
38776172,1973,1,214872,251843,1.29,0.13,9.90,-0.03,-0.01,-0.00,31.89
38816858,1931,1,214995,252006,1.28,0.14,9.93,-0.03,-0.01,-0.00,31.85
38855172,1991,1,215095,252196,1.29,0.15,9.92,-0.03,-0.01,-0.00,31.85
38896172,1953,1,215161,252455,1.29,0.15,9.91,-0.03,-0.01,-0.00,31.85
38936172,1973,1,215117,251975,1.29,0.14,9.90,-0.03,-0.01,-0.00,31.85
38976169,1953,1,214774,250213,1.31,0.13,9.92,-0.03,-0.01,-0.00,31.85
39016172,1959,1,214197,248953,1.30,0.15,9.91,-0.03,-0.01,-0.00,31.85
39056169,1971,1,214081,248915,1.30,0.15,9.89,-0.03,-0.01,-0.00,31.85
39096172,1957,1,214128,249113,1.28,0.15,9.92,-0.03,-0.01,-0.00,31.85
39136172,1973,1,214131,249320,1.29,0.15,9.92,-0.03,-0.01,-0.00,31.85
39176172,1951,1,214244,249653,1.29,0.15,9.92,-0.03,-0.01,-0.00,31.85
39216172,1972,1,214413,249967,1.30,0.14,9.92,-0.03,-0.01,-0.00,31.85
39256171,1983,1,214482,250007,1.28,0.14,9.90,-0.03,-0.01,-0.00,31.85
39296172,1984,1,214507,250052,1.30,0.15,9.89,-0.03,-0.01,-0.00,31.85
39336172,1981,1,214553,250280,1.28,0.14,9.93,-0.03,-0.01,-0.00,31.85
39376172,1968,1,214636,250656,1.30,0.12,9.92,-0.03,-0.01,-0.00,31.85
39416172,1943,1,214737,250934,1.31,0.15,9.93,-0.03,-0.01,-0.00,31.85
39456172,1941,1,214821,251212,1.29,0.13,9.92,-0.03,-0.01,-0.00,31.85
39496172,1953,1,214885,251439,1.29,0.13,9.90,-0.03,-0.01,-0.00,31.85
39536169,1959,1,214903,251698,1.29,0.13,9.90,-0.03,-0.01,-0.00,31.85
39576172,1970,1,214979,251928,1.30,0.14,9.93,-0.03,-0.01,-0.00,31.85
39616172,1956,1,214996,251689,1.27,0.13,9.91,-0.03,-0.01,-0.00,31.85
39656172,1962,1,214666,250002,1.31,0.13,9.91,-0.03,-0.01,-0.00,31.85
39696192,1958,1,214004,248632,1.30,0.13,9.94,-0.03,-0.01,-0.00,31.85
39736172,1961,1,213837,248494,1.30,0.14,9.91,-0.03,-0.01,-0.00,31.85
39776172,1968,1,213844,248611,1.30,0.15,9.93,-0.03,-0.01,-0.00,31.85
39816858,1978,1,213965,248817,1.29,0.14,9.92,-0.03,-0.01,-0.00,31.97
39855172,1969,1,214043,249095,1.29,0.13,9.92,-0.03,-0.01,-0.00,31.97
39895211,1968,1,214190,249401,1.30,0.14,9.91,-0.03,-0.01,-0.00,31.97
39935172,1991,1,214220,249521,1.30,0.13,9.90,-0.03,-0.01,-0.00,31.97
39975172,1978,1,214262,249601,1.30,0.13,9.94,-0.03,-0.01,-0.01,31.97
40015172,1975,1,214306,249920,1.29,0.13,9.93,-0.03,-0.01,-0.00,31.97
40055172,1968,1,214392,250217,1.30,0.13,9.90,-0.03,-0.01,-0.01,31.97
40095169,1958,1,214512,250582,1.30,0.15,9.91,-0.03,-0.01,-0.00,31.97
40135172,1968,1,214689,250951,1.30,0.15,9.93,-0.03,-0.01,-0.00,31.97
40175172,1947,1,214795,251233,1.30,0.15,9.93,-0.03,-0.01,-0.00,31.97
40215171,1974,1,214877,251458,1.30,0.14,9.92,-0.03,-0.01,-0.00,31.97
40255169,1970,1,214927,251711,1.29,0.15,9.90,-0.03,-0.01,-0.00,31.97
40295172,1978,1,215032,251687,1.29,0.13,9.94,-0.03,-0.01,-0.00,31.97
40335172,1968,1,214798,250192,1.31,0.12,9.91,-0.03,-0.01,-0.00,31.97
40375172,1968,1,214147,248675,1.28,0.13,9.93,-0.03,-0.01,-0.00,31.97
40415172,1970,1,213994,248512,1.32,0.13,9.93,-0.03,-0.01,-0.00,31.97
40455172,1974,1,214107,248835,1.29,0.14,9.90,-0.03,-0.01,-0.00,31.97
40495172,1971,1,214245,249162,1.29,0.13,9.91,-0.03,-0.01,-0.00,31.97
40535172,1952,1,214352,249595,1.30,0.15,9.92,-0.03,-0.01,-0.01,31.97
40575172,1959,1,214512,249976,1.30,0.15,9.92,-0.03,-0.01,-0.01,31.97
40615172,1977,1,214565,250041,1.28,0.12,9.92,-0.03,-0.01,-0.00,31.97
40655172,1981,1,214551,250127,1.30,0.13,9.92,-0.03,-0.01,-0.00,31.97
40695172,1959,1,214489,250242,1.29,0.14,9.91,-0.03,-0.01,-0.00,31.97
40735172,1968,1,214653,250557,1.29,0.16,9.91,-0.03,-0.01,-0.01,31.97
40775172,1958,1,214770,250930,1.29,0.15,9.92,-0.03,-0.01,-0.00,31.97
40815172,1953,1,214908,251357,1.27,0.14,9.90,-0.03,-0.01,-0.00,31.97
40855858,1957,1,214985,251713,1.30,0.13,9.92,-0.03,-0.01,-0.00,31.91
40894169,2001,1,215113,252079,1.29,0.13,9.93,-0.03,-0.01,-0.00,31.91
40934172,2002,1,215276,252350,1.28,0.15,9.90,-0.03,-0.01,-0.00,31.91
40974172,2001,1,215275,251803,1.29,0.14,9.93,-0.03,-0.01,-0.01,31.91
41014172,2000,1,214842,250073,1.30,0.14,9.92,-0.03,-0.01,-0.00,31.91
41054172,1994,1,214249,249174,1.30,0.14,9.95,-0.03,-0.01,-0.00,31.91
41094172,2003,1,214141,249272,1.28,0.14,9.92,-0.03,-0.01,-0.01,31.91
41134172,1991,1,214150,249421,1.29,0.14,9.91,-0.03,-0.01,-0.00,31.91
41174171,2016,1,214335,249897,1.29,0.15,9.95,-0.03,-0.01,-0.00,31.91
41214172,2016,1,214318,250223,1.30,0.13,9.91,-0.03,-0.01,-0.00,31.91
41254171,2020,1,214554,250459,1.30,0.14,9.92,-0.03,-0.01,-0.00,31.91
41294172,2002,1,214508,250353,1.30,0.16,9.90,-0.03,-0.01,-0.00,31.91
41334175,1991,1,214526,250573,1.30,0.12,9.94,-0.03,-0.01,-0.00,31.91
41374172,1968,1,214572,250880,1.29,0.11,9.91,-0.03,-0.01,-0.00,31.91
41414171,1979,1,214737,251303,1.29,0.14,9.95,-0.03,-0.01,-0.00,31.91
41454172,1985,1,214774,251572,1.29,0.14,9.94,-0.03,-0.01,-0.00,31.91
41494172,1980,1,214934,251859,1.29,0.12,9.94,-0.03,-0.01,-0.00,31.91
41534174,1968,1,215020,252058,1.28,0.15,9.91,-0.03,-0.01,-0.00,31.91
41574172,1994,1,215197,252203,1.30,0.14,9.92,-0.03,-0.01,-0.00,31.91
41614172,1999,1,215174,251786,1.27,0.15,9.91,-0.03,-0.01,-0.00,31.91
41654172,1990,1,214752,250091,1.30,0.14,9.92,-0.03,-0.01,-0.00,31.91
41694172,1986,1,214002,248815,1.31,0.14,9.93,-0.03,-0.01,-0.00,31.91
41734172,1983,1,213899,248803,1.31,0.13,9.91,-0.03,-0.01,-0.00,31.91
41774172,1983,1,213990,249065,1.30,0.13,9.94,-0.03,-0.01,-0.01,31.91
41814172,1999,1,214110,249238,1.30,0.15,9.90,-0.03,-0.01,-0.00,31.91
41854169,1979,1,214258,249717,1.30,0.14,9.90,-0.03,-0.01,-0.00,31.91
41894858,1946,1,214366,249897,1.30,0.16,9.92,-0.03,-0.01,-0.00,31.95
41935172,1974,1,214364,249862,1.28,0.14,9.92,-0.03,-0.01,-0.00,31.95
41975172,1949,1,214438,249820,1.31,0.14,9.92,-0.03,-0.01,-0.00,31.95
42015172,1939,1,214545,250072,1.28,0.15,9.91,-0.03,-0.01,-0.01,31.95
42055172,1948,1,214675,250477,1.31,0.14,9.93,-0.03,-0.01,-0.00,31.95
42095172,1950,1,214756,250854,1.31,0.14,9.90,-0.03,-0.01,-0.00,31.95
42135171,1950,1,214811,251175,1.29,0.13,9.94,-0.03,-0.01,-0.01,31.95
42175172,1957,1,214946,251433,1.30,0.15,9.91,-0.03,-0.01,-0.01,31.95
42215172,1961,1,214988,251588,1.32,0.13,9.92,-0.03,-0.01,-0.00,31.95
42255172,1963,1,215145,251791,1.30,0.14,9.91,-0.03,-0.01,-0.01,31.95
42295172,1963,1,214894,250353,1.29,0.15,9.93,-0.03,-0.01,-0.00,31.95
42335172,1962,1,214182,248533,1.29,0.15,9.93,-0.03,-0.01,-0.00,31.95
42375172,1958,1,213817,248204,1.29,0.14,9.96,-0.03,-0.01,-0.00,31.95
42415172,1969,1,213931,248475,1.29,0.15,9.91,-0.03,-0.01,-0.00,31.95
42455172,1974,1,213943,248605,1.30,0.14,9.90,-0.03,-0.01,-0.00,31.95
42495169,1958,1,214063,249001,1.29,0.14,9.90,-0.03,-0.01,-0.00,31.95
42535172,1965,1,214148,249341,1.29,0.14,9.90,-0.03,-0.01,-0.00,31.95
42575172,1953,1,214190,249554,1.29,0.14,9.93,-0.03,-0.01,-0.00,31.95
42615171,1953,1,214142,249580,1.28,0.15,9.91,-0.03,-0.01,-0.00,31.95
42655172,1961,1,214238,249804,1.30,0.16,9.93,-0.03,-0.01,-0.00,31.95
42695171,1950,1,214350,250187,1.28,0.14,9.90,-0.03,-0.01,-0.00,31.95
42735172,1949,1,214427,250537,1.31,0.14,9.93,-0.03,-0.01,-0.00,31.95
42775172,1938,1,214547,250793,1.29,0.14,9.94,-0.03,-0.01,-0.00,31.95
42815172,1954,1,214710,251115,1.29,0.15,9.95,-0.03,-0.01,-0.00,31.95
42855172,1965,1,214877,251446,1.29,0.12,9.91,-0.03,-0.01,-0.00,31.95
42895859,1967,1,214952,251691,1.29,0.15,9.92,-0.03,-0.01,-0.00,31.77
42934172,1968,1,214982,251193,1.30,0.15,9.89,-0.03,-0.01,-0.00,31.77
42974171,1974,1,214529,249281,1.29,0.12,9.92,-0.03,-0.01,-0.01,31.77
43014172,1971,1,213746,247921,1.30,0.14,9.92,-0.03,-0.01,-0.00,31.77
43054172,1967,1,213637,248113,1.29,0.13,9.93,-0.03,-0.01,-0.00,31.77
43094172,1968,1,213870,248411,1.29,0.15,9.92,-0.03,-0.01,-0.00,31.77
43134172,1978,1,213847,248583,1.28,0.14,9.91,-0.03,-0.01,-0.00,31.77
43174196,1980,1,214071,249054,1.29,0.13,9.92,-0.03,-0.01,-0.01,31.77
43214172,1968,1,214059,249209,1.30,0.14,9.92,-0.03,-0.01,-0.00,31.77
43254172,1953,1,214273,249332,1.30,0.16,9.93,-0.03,-0.01,-0.00,31.77
43294172,1959,1,214259,249536,1.31,0.12,9.89,-0.03,-0.01,-0.00,31.77
43334172,1968,1,214283,249651,1.30,0.14,9.92,-0.03,-0.01,-0.00,31.77
43374192,1956,1,214494,250122,1.31,0.13,9.94,-0.03,-0.01,-0.00,31.77
43414172,1981,1,214642,250459,1.28,0.15,9.91,-0.03,-0.01,-0.00,31.77
43454172,1958,1,214738,250747,1.30,0.12,9.90,-0.03,-0.01,-0.00,31.77
43494172,1979,1,214850,250980,1.30,0.14,9.91,-0.03,-0.01,-0.00,31.77
43534172,1979,1,214918,251246,1.30,0.13,9.92,-0.03,-0.01,-0.00,31.77
43574171,1962,1,215026,251455,1.30,0.16,9.92,-0.03,-0.01,-0.00,31.77
43614172,1957,1,215134,251175,1.28,0.13,9.94,-0.03,-0.01,-0.00,31.77
43654172,1968,1,214587,249149,1.29,0.13,9.94,-0.03,-0.01,-0.00,31.77
43694172,1967,1,213995,248056,1.30,0.14,9.92,-0.03,-0.01,-0.00,31.77
43734172,1977,1,213811,248047,1.30,0.14,9.92,-0.03,-0.01,-0.00,31.77
43774172,1966,1,213991,248428,1.30,0.16,9.91,-0.03,-0.01,-0.00,31.77
43814172,1968,1,213887,248544,1.29,0.15,9.91,-0.03,-0.01,-0.00,31.77
43854172,1960,1,214170,249101,1.28,0.15,9.92,-0.03,-0.01,-0.00,31.77
43894172,1953,1,214203,249370,1.27,0.14,9.90,-0.03,-0.01,-0.00,31.77
43934858,1920,1,214388,249418,1.28,0.14,9.92,-0.03,-0.01,-0.00,31.71
43973172,1977,1,214425,249654,1.30,0.15,9.92,-0.03,-0.01,-0.01,31.71
44013172,1999,1,214405,249932,1.29,0.12,9.94,-0.03,-0.01,-0.00,31.71
44053171,1995,1,214660,250391,1.29,0.15,9.93,-0.03,-0.01,-0.00,31.71
44093172,1984,1,214756,250853,1.31,0.14,9.91,-0.03,-0.01,-0.00,31.71
44133172,2005,1,214910,251262,1.28,0.13,9.92,-0.03,-0.01,-0.00,31.71
44173172,2009,1,214979,251649,1.27,0.14,9.92,-0.03,-0.01,-0.01,31.71
44213172,2007,1,215069,251940,1.29,0.13,9.91,-0.03,-0.01,-0.00,31.71
44253172,2014,1,215144,252152,1.29,0.14,9.91,-0.03,-0.01,-0.01,31.71
44293172,2000,1,215318,251812,1.27,0.14,9.93,-0.03,-0.01,-0.00,31.71
44333172,1999,1,214771,249786,1.30,0.14,9.92,-0.03,-0.01,-0.00,31.71
44373172,2013,1,214200,248834,1.30,0.15,9.94,-0.03,-0.01,-0.00,31.71
44413172,2000,1,214054,248880,1.27,0.13,9.94,-0.03,-0.01,-0.00,31.71
44453172,2006,1,214236,249386,1.29,0.13,9.90,-0.03,-0.01,-0.00,31.71
44493169,1985,1,214258,249659,1.30,0.14,9.89,-0.03,-0.01,-0.00,31.71
44533172,2000,1,214589,250293,1.26,0.14,9.91,-0.03,-0.01,-0.01,31.71
44573172,1981,1,214702,250608,1.28,0.13,9.91,-0.03,-0.01,-0.00,31.71
44613172,1969,1,214724,250538,1.27,0.13,9.92,-0.03,-0.01,-0.01,31.71
44653172,1987,1,214802,250792,1.27,0.12,9.93,-0.03,-0.01,-0.00,31.71
44693172,1970,1,214867,251018,1.30,0.14,9.92,-0.03,-0.01,-0.01,31.71
44733172,1978,1,214996,251377,1.30,0.14,9.93,-0.03,-0.01,-0.00,31.71
44773172,1986,1,215158,251786,1.27,0.14,9.89,-0.03,-0.01,-0.00,31.71
44813189,1995,1,215170,251951,1.29,0.14,9.90,-0.03,-0.01,-0.00,31.71
44853171,1969,1,215362,252310,1.28,0.13,9.92,-0.03,-0.01,-0.00,31.71
44893172,1982,1,215485,252513,1.30,0.13,9.92,-0.03,-0.01,-0.00,31.71
44933172,1984,1,215571,252441,1.29,0.13,9.92,-0.03,-0.01,-0.00,31.71
44973858,1955,1,215211,250621,1.30,0.15,9.92,-0.03,-0.01,-0.00,31.75
45014199,1950,1,214599,249112,1.28,0.15,9.96,-0.03,-0.01,-0.00,31.75
45054172,1973,1,214400,249068,1.30,0.13,9.94,-0.03,-0.01,-0.00,31.75
45094172,1967,1,214373,249281,1.28,0.15,9.91,-0.03,-0.01,-0.00,31.75
45134172,1972,1,214503,249693,1.28,0.14,9.90,-0.03,-0.01,-0.00,31.75
45174171,1939,1,214572,250204,1.27,0.16,9.94,-0.03,-0.01,-0.00,31.75
45214172,1967,1,214847,250530,1.28,0.14,9.91,-0.03,-0.01,-0.00,31.75
45254172,1953,1,214765,250514,1.28,0.11,9.94,-0.03,-0.01,-0.00,31.75
45294172,1962,1,214837,250621,1.30,0.16,9.92,-0.03,-0.01,-0.01,31.75
45334172,1941,1,214793,250842,1.30,0.16,9.90,-0.03,-0.01,-0.00,31.75
45374169,1952,1,215052,251298,1.29,0.15,9.92,-0.03,-0.01,-0.00,31.75
45414172,1973,1,215205,251626,1.29,0.16,9.93,-0.03,-0.01,-0.00,31.75
45454172,1953,1,215093,251922,1.28,0.14,9.92,-0.03,-0.01,-0.00,31.75
45494172,1943,1,215356,252241,1.30,0.14,9.93,-0.03,-0.01,-0.00,31.75
45534172,1954,1,215440,252606,1.30,0.15,9.92,-0.03,-0.01,-0.00,31.75
45574171,1961,1,215451,252628,1.30,0.13,9.92,-0.03,-0.01,-0.00,31.75
45614170,1961,1,215322,251158,1.28,0.13,9.92,-0.03,-0.01,-0.01,31.75
45654172,1950,1,214571,249493,1.28,0.16,9.93,-0.03,-0.01,-0.00,31.75
45694172,1968,1,214293,249139,1.29,0.12,9.93,-0.03,-0.01,-0.00,31.75
45734172,1971,1,214343,249443,1.29,0.12,9.90,-0.03,-0.01,-0.00,31.75
45774172,1965,1,214318,249574,1.30,0.13,9.91,-0.03,-0.01,-0.00,31.75
45814172,1964,1,214438,250075,1.31,0.14,9.92,-0.03,-0.01,-0.00,31.75
45854172,1936,1,214509,250347,1.29,0.14,9.92,-0.03,-0.01,-0.00,31.75
45894172,1950,1,214637,250399,1.32,0.14,9.90,-0.03,-0.02,-0.01,31.75
45934172,1952,1,214696,250560,1.31,0.14,9.91,-0.03,-0.01,-0.00,31.75
45974859,1955,1,214698,250791,1.29,0.14,9.90,-0.04,-0.01,-0.00,31.75
46013172,1967,1,214925,251266,1.29,0.12,9.93,-0.03,-0.01,-0.00,31.75
46053172,1984,1,215101,251760,1.29,0.13,9.93,-0.03,-0.01,-0.00,31.75
46093172,1962,1,215179,251987,1.30,0.14,9.90,-0.03,-0.01,-0.00,31.75
46133172,1965,1,215357,252336,1.28,0.16,9.91,-0.03,-0.01,-0.00,31.75
46173172,1968,1,215402,252576,1.28,0.14,9.92,-0.03,-0.02,-0.00,31.75
46213172,1966,1,215453,252721,1.29,0.12,9.91,-0.03,-0.02,-0.00,31.75
46253172,1973,1,215485,252137,1.28,0.14,9.91,-0.03,-0.01,-0.01,31.75
46293172,1962,1,215051,250279,1.30,0.15,9.90,-0.03,-0.00,-0.01,31.75
46333169,1981,1,214484,249308,1.31,0.15,9.93,-0.03,-0.01,-0.00,31.75
46373171,1978,1,214349,249254,1.28,0.15,9.92,-0.03,-0.01,-0.00,31.75
46413172,1959,1,214448,249430,1.29,0.14,9.93,-0.03,-0.01,-0.00,31.75
46453218,1971,1,214605,249819,1.28,0.17,9.93,-0.03,-0.02,-0.00,31.75
46493172,1956,1,214828,250333,1.31,0.12,9.91,-0.03,-0.01,-0.00,31.75
46533171,1971,1,215002,250772,1.31,0.14,9.90,-0.03,-0.01,-0.00,31.75
46573172,1961,1,215043,250903,1.28,0.15,9.90,-0.03,-0.01,-0.00,31.75
46613171,1925,1,215199,251221,1.28,0.15,9.93,-0.03,-0.01,-0.00,31.75
46653223,1957,1,215377,251676,1.29,0.14,9.90,-0.03,-0.01,-0.01,31.75
46693172,1996,1,215546,252372,1.30,0.12,9.93,-0.03,-0.01,-0.01,31.75
46733172,1942,1,215787,252980,1.30,0.12,9.91,-0.03,-0.01,-0.00,31.75
46773171,1978,1,216194,253660,1.28,0.16,9.90,-0.03,-0.02,-0.00,31.75
46813169,1945,1,216315,254000,1.29,0.14,9.92,-0.03,-0.02,-0.00,31.75
46853172,1943,1,216500,254349,1.31,0.14,9.91,-0.03,-0.01,-0.00,31.75
46893172,1937,1,216564,254595,1.28,0.14,9.90,-0.03,-0.01,-0.00,31.75
46933172,1949,1,216550,253615,1.29,0.15,9.90,-0.03,-0.01,-0.01,31.75
46973172,1972,1,215977,251841,1.30,0.12,9.94,-0.03,-0.00,-0.00,31.75
47013858,1968,1,215401,251055,1.31,0.14,9.92,-0.03,-0.01,-0.00,31.77
47052172,2000,1,215352,251381,1.29,0.13,9.95,-0.03,-0.02,-0.00,31.77
47092171,1982,1,215492,251714,1.31,0.15,9.90,-0.03,-0.01,-0.00,31.77
47132172,1968,1,215605,252041,1.30,0.13,9.92,-0.03,-0.01,-0.00,31.77
47172172,1952,1,215895,252694,1.30,0.13,9.92,-0.03,-0.01,-0.00,31.77
47212169,1999,1,216130,253100,1.30,0.14,9.92,-0.03,-0.01,-0.00,31.77
47252171,1968,1,216221,253271,1.30,0.14,9.95,-0.04,-0.01,-0.00,31.77
47292172,1988,1,216177,253502,1.29,0.14,9.95,-0.03,-0.01,-0.00,31.77
47332172,1974,1,216396,254034,1.29,0.13,9.94,-0.03,-0.01,-0.00,31.77
47372172,1982,1,216536,254374,1.27,0.15,9.91,-0.03,-0.01,-0.00,31.77
47412172,1968,1,216685,254876,1.29,0.15,9.92,-0.03,-0.01,-0.00,31.77
47452172,1973,1,216836,255250,1.28,0.14,9.94,-0.03,-0.01,-0.00,31.77
47492172,1975,1,217003,255678,1.29,0.13,9.91,-0.03,-0.01,-0.00,31.77
47532172,1979,1,217110,256071,1.30,0.13,9.93,-0.03,-0.01,-0.00,31.77
47572172,1979,1,217153,255975,1.29,0.13,9.91,-0.03,-0.01,-0.00,31.77
47612172,1991,1,217012,254723,1.28,0.12,9.94,-0.04,-0.00,-0.00,31.77
47652172,2015,1,216338,253168,1.30,0.14,9.95,-0.04,-0.01,-0.01,31.77
47692172,1984,1,216056,252948,1.29,0.13,9.91,-0.03,-0.01,-0.00,31.77
47732172,1999,1,216034,253146,1.29,0.13,9.92,-0.03,-0.01,-0.00,31.77
47772172,1968,1,216256,253339,1.29,0.14,9.93,-0.03,-0.01,-0.00,31.77
47812172,1968,1,216364,253908,1.32,0.13,9.90,-0.03,-0.01,-0.00,31.77
47852169,1949,1,216496,254287,1.28,0.15,9.92,-0.03,-0.01,-0.00,31.77
47892172,1990,1,216698,254467,1.29,0.16,9.92,-0.03,-0.01,-0.00,31.77
47932172,1951,1,216576,254571,1.30,0.13,9.93,-0.03,-0.01,-0.00,31.77
47972172,1968,1,216712,254872,1.28,0.13,9.91,-0.03,-0.01,-0.00,31.77
48012172,1972,1,216755,255075,1.27,0.15,9.93,-0.03,-0.01,-0.01,31.77
48052858,1936,1,216889,255495,1.30,0.14,9.90,-0.03,-0.01,-0.00,31.69
48093186,1939,1,216917,255702,1.30,0.14,9.93,-0.03,-0.01,-0.00,31.69
48133172,1937,1,217071,255814,1.30,0.13,9.92,-0.03,-0.01,-0.00,31.69
48173169,1938,1,217095,256155,1.30,0.14,9.92,-0.03,-0.01,-0.00,31.69
48213172,1955,1,217177,256213,1.29,0.14,9.92,-0.03,-0.01,-0.00,31.69
48253172,1947,1,216981,254865,1.31,0.12,9.89,-0.03,-0.01,-0.00,31.69
48293206,1957,1,216210,253172,1.28,0.14,9.93,-0.03,-0.01,-0.00,31.69
48333172,1925,1,215806,252731,1.31,0.12,9.89,-0.03,-0.01,-0.00,31.69
48373172,1947,1,215782,252929,1.27,0.15,9.92,-0.03,-0.01,-0.00,31.69
48413172,1933,1,215939,253264,1.28,0.12,9.90,-0.03,-0.01,-0.00,31.69
48453172,1932,1,215995,253612,1.31,0.14,9.93,-0.03,-0.01,-0.00,31.69
48493196,1934,1,216064,253923,1.29,0.15,9.89,-0.03,-0.01,-0.00,31.69
48533172,1954,1,216221,253924,1.30,0.15,9.95,-0.03,-0.01,-0.00,31.69
48573172,1965,1,216222,253876,1.29,0.13,9.92,-0.03,-0.01,-0.00,31.69
48613172,1952,1,216107,253903,1.29,0.14,9.90,-0.03,-0.01,-0.00,31.69
48653172,1935,1,216203,254254,1.28,0.13,9.92,-0.03,-0.01,-0.00,31.69
48693171,1939,1,216353,254586,1.29,0.14,9.94,-0.03,-0.01,-0.00,31.69
48733172,1955,1,216366,254711,1.31,0.16,9.92,-0.03,-0.01,-0.00,31.69
48773172,1966,1,216578,255200,1.29,0.13,9.93,-0.03,-0.01,-0.00,31.69
48811172,2043,1,216594,255464,1.30,0.15,9.93,-0.03,-0.01,-0.00,31.69
48851171,2032,1,216814,255585,1.30,0.15,9.93,-0.03,-0.01,-0.00,31.69
48891172,2032,1,216512,254106,1.30,0.16,9.91,-0.03,-0.01,-0.00,31.69
48931172,2026,1,215934,252298,1.29,0.14,9.94,-0.03,-0.01,-0.00,31.69
48971172,2021,1,215558,251765,1.30,0.14,9.91,-0.03,-0.01,-0.00,31.69
49011172,1982,1,215505,251855,1.30,0.13,9.92,-0.03,-0.01,-0.00,31.69
49051169,2015,1,215631,251992,1.28,0.14,9.92,-0.03,-0.01,-0.00,31.69
49091858,1945,1,215616,252299,1.30,0.15,9.94,-0.03,-0.01,-0.00,31.77
49132172,1935,1,215822,252681,1.30,0.15,9.92,-0.03,-0.01,-0.00,31.77
49172171,1968,1,215943,252823,1.30,0.14,9.91,-0.03,-0.00,-0.00,31.77
49212169,1952,1,215930,252968,1.29,0.13,9.90,-0.03,-0.01,-0.00,31.77
49252172,1950,1,215885,252997,1.32,0.11,9.89,-0.03,-0.01,-0.00,31.77
49292172,1952,1,215989,253469,1.28,0.13,9.92,-0.03,-0.01,-0.00,31.77
49332171,1948,1,216134,253778,1.29,0.14,9.91,-0.03,-0.01,-0.01,31.77
49372172,1963,1,216159,254062,1.29,0.13,9.93,-0.03,-0.02,-0.00,31.77
49412171,1953,1,216301,254285,1.30,0.14,9.90,-0.03,-0.02,-0.00,31.77
49452169,1949,1,216323,254522,1.29,0.16,9.91,-0.03,-0.01,-0.00,31.77
49492172,1931,1,216409,254614,1.30,0.15,9.92,-0.03,-0.01,-0.00,31.77
49532172,1949,1,216280,253458,1.32,0.12,9.88,-0.03,-0.01,-0.00,31.77
49572172,1951,1,215573,251624,1.30,0.14,9.91,-0.03,-0.01,-0.00,31.77
49612172,1956,1,215201,251185,1.28,0.15,9.96,-0.03,-0.01,-0.00,31.77
49652172,1940,1,215194,251315,1.30,0.13,9.92,-0.03,-0.01,-0.01,31.77
49692172,1947,1,215136,251414,1.28,0.12,9.90,-0.03,-0.01,-0.00,31.77
49732195,1936,1,215284,251786,1.30,0.13,9.91,-0.03,-0.01,-0.00,31.77
49772169,1939,1,215502,252221,1.30,0.15,9.93,-0.03,-0.01,-0.00,31.77
49812172,1933,1,215486,252268,1.29,0.16,9.94,-0.03,-0.01,-0.00,31.77
49852172,1943,1,215566,252381,1.27,0.11,9.92,-0.03,-0.01,-0.00,31.77
49892172,1951,1,215600,252484,1.31,0.14,9.92,-0.03,-0.02,-0.00,31.77
49933172,1955,1,215598,252691,1.28,0.15,9.90,-0.03,-0.01,-0.00,31.77
49971172,1970,1,215747,253143,1.31,0.14,9.90,-0.03,-0.01,-0.00,31.77
50011172,1968,1,215929,253538,1.31,0.14,9.90,-0.03,-0.01,-0.00,31.77
50051171,1988,1,216053,253847,1.29,0.13,9.92,-0.03,-0.01,-0.00,31.77
50091858,1957,1,216097,254145,1.29,0.15,9.93,-0.03,-0.01,-0.01,31.71
50132201,1950,1,216303,254427,1.30,0.14,9.93,-0.03,-0.01,-0.01,31.71
50172172,1953,1,216299,253597,1.29,0.15,9.91,-0.03,-0.01,-0.00,31.71
50212171,1941,1,215742,251550,1.29,0.12,9.93,-0.03,-0.01,-0.00,31.71
50252172,1948,1,215216,250715,1.29,0.14,9.92,-0.03,-0.02,-0.00,31.71
50292172,1936,1,215098,250949,1.30,0.16,9.91,-0.03,-0.01,-0.00,31.71
50332172,1933,1,215208,251241,1.30,0.14,9.91,-0.03,-0.01,-0.00,31.71
50372172,1936,1,215328,251753,1.31,0.13,9.92,-0.03,-0.00,-0.00,31.71
50412172,1936,1,215550,252287,1.29,0.14,9.92,-0.03,-0.01,-0.00,31.71
50452172,1952,1,215628,252503,1.28,0.14,9.92,-0.03,-0.01,-0.01,31.71
50492172,1924,1,215713,252624,1.28,0.14,9.93,-0.03,-0.01,-0.00,31.71
50532172,1941,1,215774,252842,1.29,0.13,9.92,-0.03,-0.01,-0.00,31.71
50572172,1951,1,215804,253216,1.29,0.12,9.94,-0.03,-0.01,-0.00,31.71
50612172,1947,1,215978,253612,1.29,0.13,9.94,-0.03,-0.01,-0.00,31.71
50652172,1958,1,216053,254063,1.27,0.15,9.93,-0.03,-0.01,-0.00,31.71
50692172,1970,1,216258,254540,1.32,0.12,9.91,-0.03,-0.01,-0.00,31.71
50732172,1946,1,216385,255005,1.29,0.12,9.94,-0.03,-0.01,-0.00,31.71
50772172,1945,1,216406,255248,1.28,0.14,9.94,-0.03,-0.01,-0.00,31.71
50812172,1950,1,216571,254919,1.30,0.16,9.91,-0.03,-0.01,-0.00,31.71
50852172,1953,1,216071,253089,1.27,0.13,9.91,-0.03,-0.01,-0.00,31.71
50892172,1952,1,215471,252040,1.27,0.12,9.92,-0.03,-0.01,-0.01,31.71
50932171,1927,1,215309,252055,1.30,0.13,9.94,-0.03,-0.01,-0.00,31.71
50971169,1919,1,215465,252239,1.29,0.16,9.92,-0.03,-0.01,-0.00,31.71
51011172,1940,1,215448,252494,1.29,0.13,9.91,-0.03,-0.01,-0.00,31.71
51051172,1937,1,215613,252915,1.29,0.13,9.92,-0.03,-0.01,-0.00,31.71
51091858,1933,1,215670,253028,1.29,0.12,9.92,-0.03,-0.01,-0.00,31.83
51132172,1941,1,215740,253041,1.29,0.16,9.93,-0.03,-0.01,-0.00,31.83
51172172,1939,1,215704,253090,1.29,0.12,9.93,-0.03,-0.01,-0.00,31.83
51212172,1936,1,215765,253395,1.29,0.12,9.92,-0.03,-0.01,-0.00,31.83
51252172,1924,1,215866,253689,1.30,0.14,9.93,-0.03,-0.01,-0.00,31.83
51290172,2023,1,215961,254010,1.32,0.16,9.91,-0.03,-0.01,-0.00,31.83
51330172,2001,1,216163,254371,1.30,0.15,9.90,-0.03,-0.01,-0.00,31.83
51370195,2019,1,216268,254680,1.30,0.12,9.92,-0.03,-0.01,-0.00,31.83
51410172,2003,1,216338,254854,1.28,0.15,9.93,-0.03,-0.01,-0.00,31.83
51450172,2029,1,216278,253993,1.29,0.16,9.91,-0.03,-0.01,-0.00,31.83
51490172,2012,1,215647,252015,1.30,0.13,9.91,-0.03,-0.01,-0.00,31.83
51530169,2017,1,215170,251190,1.29,0.13,9.93,-0.03,-0.01,-0.00,31.83
51570213,2003,1,215188,251200,1.29,0.15,9.94,-0.03,-0.01,-0.00,31.83
51610172,1995,1,215261,251430,1.30,0.12,9.91,-0.03,-0.01,-0.00,31.83
51650171,2004,1,215327,251748,1.29,0.15,9.91,-0.03,-0.01,-0.00,31.83
51690172,2000,1,215470,252221,1.30,0.14,9.93,-0.03,-0.01,-0.01,31.83
51730171,1993,1,215576,252338,1.28,0.12,9.92,-0.03,-0.01,-0.00,31.83
51770188,1985,1,215544,252362,1.29,0.14,9.91,-0.03,-0.01,-0.00,31.83
51810171,2010,1,215552,252501,1.30,0.13,9.91,-0.03,-0.01,-0.00,31.83
51850169,1991,1,215608,252754,1.28,0.13,9.94,-0.03,-0.01,-0.00,31.83
51890172,1987,1,215703,253209,1.27,0.16,9.92,-0.03,-0.01,-0.00,31.83
51930172,2000,1,215845,253546,1.30,0.14,9.93,-0.03,-0.01,-0.00,31.83
51970172,2001,1,215929,253743,1.30,0.15,9.92,-0.03,-0.01,-0.00,31.83
52011172,1959,1,216021,254041,1.29,0.15,9.93,-0.03,-0.01,-0.00,31.83
52051172,1962,1,216029,254271,1.30,0.14,9.89,-0.03,-0.01,-0.00,31.83
52091859,1939,1,216044,253914,1.32,0.15,9.91,-0.03,-0.01,-0.00,31.81
52130172,2005,1,215582,252000,1.28,0.14,9.93,-0.03,-0.01,-0.00,31.81
52170172,1988,1,214861,250684,1.31,0.15,9.90,-0.03,-0.01,-0.01,31.81
52210172,1983,1,214607,250516,1.30,0.13,9.94,-0.03,-0.01,-0.00,31.81
52250169,1974,1,214715,250713,1.29,0.13,9.93,-0.03,-0.01,-0.01,31.81
52290172,1968,1,214837,250987,1.30,0.15,9.93,-0.03,-0.01,-0.00,31.81
52330172,1969,1,214882,251425,1.29,0.13,9.91,-0.03,-0.01,-0.00,31.81
52370172,1962,1,215004,251633,1.31,0.13,9.93,-0.03,-0.01,-0.00,31.81
52410172,1974,1,215126,251784,1.30,0.15,9.92,-0.03,-0.01,-0.00,31.81
52450171,1970,1,215057,251807,1.30,0.14,9.92,-0.03,-0.01,-0.00,31.81
52490172,1985,1,215154,252074,1.29,0.14,9.92,-0.03,-0.01,-0.00,31.81
52530172,1969,1,215248,252515,1.30,0.14,9.90,-0.03,-0.01,-0.00,31.81
52570169,1979,1,215392,252939,1.29,0.12,9.91,-0.03,-0.01,-0.00,31.81
52610172,1973,1,215503,253203,1.29,0.15,9.91,-0.03,-0.01,-0.00,31.81
52650172,1981,1,215619,253385,1.28,0.15,9.89,-0.03,-0.01,-0.01,31.81
52690171,1968,1,215802,253750,1.29,0.13,9.95,-0.03,-0.01,-0.01,31.81
52730172,1983,1,215930,253936,1.31,0.15,9.93,-0.03,-0.01,-0.00,31.81
52770171,1973,1,215878,253270,1.29,0.13,9.91,-0.03,-0.01,-0.00,31.81
52810172,1971,1,215322,251411,1.30,0.14,9.92,-0.03,-0.01,-0.00,31.81
52850171,1965,1,214715,250225,1.30,0.14,9.91,-0.03,-0.01,-0.00,31.81
52890172,1937,1,214661,250132,1.30,0.14,9.91,-0.03,-0.01,-0.00,31.81
52930172,1949,1,214670,250249,1.29,0.12,9.94,-0.03,-0.01,-0.00,31.81
52970172,1949,1,214777,250455,1.28,0.14,9.91,-0.03,-0.01,-0.00,31.81
53011172,1936,1,214927,250920,1.29,0.15,9.89,-0.03,-0.01,-0.00,31.81
53051172,1940,1,215113,251307,1.31,0.15,9.92,-0.03,-0.01,-0.00,31.81
53091859,1951,1,215104,251308,1.30,0.15,9.93,-0.03,-0.01,-0.00,31.81
53130172,1960,1,215023,251515,1.29,0.14,9.92,-0.03,-0.01,-0.01,31.81
53170172,1968,1,215233,251851,1.30,0.15,9.92,-0.03,-0.01,-0.00,31.81
53210172,1981,1,215285,252256,1.29,0.13,9.93,-0.03,-0.01,-0.00,31.81
53250172,1968,1,215468,252614,1.30,0.15,9.90,-0.03,-0.01,-0.00,31.81
53290169,1980,1,215589,252860,1.30,0.13,9.90,-0.03,-0.01,-0.00,31.81
53330172,1968,1,215689,253190,1.32,0.14,9.92,-0.03,-0.01,-0.00,31.81
53370172,1950,1,215732,253531,1.28,0.13,9.93,-0.03,-0.01,-0.00,31.81
53410172,1967,1,215923,253880,1.29,0.12,9.92,-0.03,-0.01,-0.00,31.81
53450172,1952,1,215815,253037,1.28,0.13,9.91,-0.03,-0.01,-0.01,31.81
53490172,1953,1,215309,251205,1.29,0.13,9.94,-0.03,-0.01,-0.00,31.81
53530172,1950,1,214728,250360,1.30,0.14,9.92,-0.03,-0.01,-0.00,31.81
53570171,1946,1,214667,250578,1.32,0.15,9.90,-0.03,-0.01,-0.00,31.81
53610172,1939,1,214822,250919,1.28,0.13,9.92,-0.03,-0.01,-0.00,31.81
53650172,1945,1,214982,251263,1.30,0.13,9.94,-0.03,-0.01,-0.00,31.81
53690169,1942,1,215123,251842,1.28,0.15,9.92,-0.03,-0.01,-0.00,31.81
53730172,1936,1,215216,252061,1.26,0.13,9.92,-0.03,-0.01,-0.00,31.81
53770172,1943,1,215217,252122,1.29,0.14,9.93,-0.03,-0.01,-0.00,31.81
53810171,1941,1,215285,252394,1.30,0.14,9.92,-0.03,-0.01,-0.00,31.81
53850172,1936,1,215438,252819,1.28,0.13,9.94,-0.03,-0.01,-0.00,31.81
53890172,1968,1,215680,253257,1.30,0.14,9.93,-0.03,-0.01,-0.00,31.81
53930172,1939,1,215834,253736,1.28,0.14,9.94,-0.03,-0.01,-0.00,31.81
53970172,1942,1,215853,254059,1.29,0.13,9.93,-0.03,-0.01,-0.00,31.81
54010172,1981,1,215969,254405,1.29,0.14,9.93,-0.03,-0.01,-0.00,31.81
54051172,1951,1,216147,254761,1.30,0.15,9.91,-0.03,-0.01,-0.00,31.81
54089859,1959,1,216357,254961,1.28,0.13,9.91,-0.03,-0.01,-0.01,31.75
54130171,1943,1,216084,253414,1.29,0.13,9.94,-0.03,-0.01,-0.00,31.75
54170172,1939,1,215322,251710,1.30,0.14,9.93,-0.03,-0.01,-0.00,31.75
54210171,1949,1,215014,251267,1.29,0.15,9.93,-0.03,-0.01,-0.00,31.75
54250172,1930,1,215063,251446,1.28,0.15,9.90,-0.03,-0.01,-0.00,31.75
54290172,1936,1,215153,251697,1.28,0.15,9.93,-0.03,-0.01,-0.00,31.75
54330172,1936,1,215234,252145,1.31,0.15,9.93,-0.03,-0.01,-0.00,31.75
54370172,1936,1,215485,252463,1.30,0.13,9.94,-0.03,-0.01,-0.00,31.75
54410169,1935,1,215458,252359,1.30,0.13,9.90,-0.03,-0.01,-0.00,31.75
54450172,1931,1,215362,252359,1.32,0.15,9.93,-0.03,-0.01,-0.00,31.75
54490172,1946,1,215462,252662,1.29,0.14,9.94,-0.03,-0.01,-0.00,31.75
54530172,1943,1,215632,253063,1.30,0.12,9.90,-0.03,-0.01,-0.00,31.75
54570169,1962,1,215728,253366,1.30,0.13,9.90,-0.03,-0.01,-0.00,31.75
54610172,1951,1,215853,253723,1.28,0.12,9.91,-0.03,-0.01,-0.01,31.75
54650172,1968,1,215930,254141,1.28,0.13,9.92,-0.03,-0.01,-0.00,31.75
54690171,1983,1,216094,254419,1.30,0.13,9.91,-0.03,-0.01,-0.00,31.75
54730169,1968,1,216169,254550,1.31,0.13,9.92,-0.03,-0.01,-0.00,31.75
54770171,1949,1,216060,253305,1.28,0.15,9.93,-0.03,-0.01,-0.01,31.75
54810172,1943,1,215352,251532,1.30,0.12,9.92,-0.03,-0.01,-0.00,31.75
54850219,1939,1,214897,250888,1.30,0.13,9.90,-0.03,-0.01,-0.00,31.75
54890169,1936,1,214845,251034,1.28,0.14,9.91,-0.03,-0.01,-0.00,31.75
54930172,1938,1,214916,251292,1.30,0.15,9.92,-0.03,-0.01,-0.00,31.75
54970172,1938,1,214872,251622,1.32,0.14,9.91,-0.03,-0.01,-0.00,31.75
55010172,1955,1,215101,252117,1.29,0.13,9.92,-0.03,-0.01,-0.00,31.75
55050218,1936,1,215211,252219,1.30,0.12,9.92,-0.03,-0.01,-0.01,31.75
55090172,1935,1,215203,252098,1.29,0.14,9.90,-0.03,-0.01,-0.00,31.75
55130859,1931,1,215232,252403,1.30,0.11,9.91,-0.03,-0.01,-0.00,31.77
55169171,1983,1,215324,252895,1.29,0.15,9.90,-0.03,-0.01,-0.00,31.77
55209172,1982,1,215515,253263,1.30,0.16,9.94,-0.03,-0.01,-0.01,31.77
55249172,2000,1,215620,253591,1.30,0.13,9.91,-0.03,-0.01,-0.01,31.77
55289172,1987,1,215732,254033,1.28,0.14,9.90,-0.03,-0.01,-0.00,31.77
55329171,1984,1,215876,254227,1.29,0.15,9.92,-0.03,-0.01,-0.00,31.77
55369172,1968,1,215919,254582,1.29,0.13,9.90,-0.03,-0.01,-0.00,31.77
55409172,1981,1,216069,254035,1.30,0.15,9.90,-0.03,-0.01,-0.00,31.77
55449169,1965,1,215456,251876,1.31,0.15,9.93,-0.03,-0.01,-0.00,31.77
55489172,1958,1,214725,250670,1.28,0.15,9.92,-0.03,-0.01,-0.00,31.77
55529172,1952,1,214515,250580,1.29,0.13,9.93,-0.03,-0.01,-0.00,31.77
55569172,1946,1,214661,250731,1.30,0.14,9.91,-0.03,-0.01,-0.00,31.77
55609172,1959,1,214731,250888,1.29,0.14,9.95,-0.03,-0.01,-0.00,31.77
55649172,1968,1,214765,251387,1.28,0.14,9.92,-0.03,-0.01,-0.00,31.77
55689172,1968,1,214992,251711,1.31,0.14,9.93,-0.03,-0.01,-0.00,31.77
55729172,1975,1,215034,251727,1.30,0.15,9.90,-0.03,-0.01,-0.00,31.77
55769169,1961,1,215025,251883,1.29,0.14,9.90,-0.03,-0.01,-0.00,31.77
55809171,1963,1,215177,252032,1.29,0.15,9.91,-0.03,-0.01,-0.00,31.77
55849172,1961,1,215270,252451,1.30,0.16,9.94,-0.03,-0.01,-0.00,31.77
55889171,1949,1,215414,252861,1.27,0.15,9.90,-0.03,-0.01,-0.00,31.77
55929172,1949,1,215608,253075,1.30,0.15,9.90,-0.03,-0.01,-0.00,31.77
55969172,1968,1,215595,253390,1.30,0.14,9.92,-0.03,-0.01,-0.00,31.77
56009172,1965,1,215758,253738,1.29,0.15,9.93,-0.03,-0.01,-0.00,31.77
56049172,1945,1,215841,253874,1.28,0.14,9.91,-0.03,-0.01,-0.00,31.77
56089172,1954,1,215755,252519,1.29,0.14,9.93,-0.03,-0.01,-0.00,31.77
56129171,1942,1,214975,250661,1.30,0.13,9.92,-0.03,-0.01,-0.00,31.77
56169856,1915,1,214520,250158,1.29,0.14,9.91,-0.03,-0.01,-0.00,31.77
56210171,1918,1,214579,250196,1.29,0.14,9.96,-0.03,-0.01,-0.00,31.77
56250172,1931,1,214576,250527,1.30,0.15,9.92,-0.03,-0.01,-0.00,31.77
56290172,1936,1,214714,250814,1.30,0.14,9.92,-0.03,-0.01,-0.00,31.77
56330172,1922,1,214783,251272,1.31,0.13,9.91,-0.03,-0.01,-0.00,31.77
56370172,1922,1,214996,251417,1.30,0.14,9.90,-0.03,-0.01,-0.00,31.77
56410169,1908,1,214969,251381,1.29,0.13,9.91,-0.03,-0.01,-0.00,31.77
56450171,1926,1,214950,251662,1.30,0.14,9.91,-0.03,-0.01,-0.00,31.77
56490186,1925,1,215014,251997,1.30,0.16,9.91,-0.03,-0.01,-0.00,31.77
56530171,1950,1,215113,252553,1.30,0.15,9.93,-0.03,-0.01,-0.00,31.77
56570172,1936,1,215315,252878,1.31,0.14,9.90,-0.03,-0.01,-0.00,31.77
56610172,1954,1,215473,253312,1.30,0.13,9.93,-0.03,-0.01,-0.00,31.77
56650169,1936,1,215589,253555,1.29,0.14,9.92,-0.03,-0.01,-0.01,31.77
56690217,1927,1,215663,253963,1.31,0.14,9.94,-0.03,-0.01,-0.00,31.77
56730172,1934,1,215803,253850,1.30,0.15,9.92,-0.03,-0.01,-0.00,31.77
56770172,1926,1,215459,252177,1.30,0.13,9.91,-0.03,-0.01,-0.00,31.77
56810169,1918,1,214758,250915,1.30,0.11,9.94,-0.03,-0.01,-0.00,31.77
56850172,1904,1,214576,250670,1.30,0.13,9.93,-0.03,-0.01,-0.00,31.77
56890193,1910,1,214678,250898,1.28,0.15,9.94,-0.03,-0.01,-0.01,31.77
56930172,1919,1,214667,251222,1.31,0.14,9.93,-0.03,-0.01,-0.00,31.77
56970172,1910,1,214886,251652,1.29,0.13,9.93,-0.03,-0.01,-0.00,31.77
57010172,1910,1,215089,252061,1.30,0.14,9.94,-0.03,-0.01,-0.00,31.77
57050172,1920,1,215076,252088,1.28,0.14,9.91,-0.03,-0.01,-0.00,31.77
57088172,2015,1,215215,252246,1.30,0.14,9.94,-0.03,-0.01,-0.00,31.77
57128172,2015,1,215233,252726,1.30,0.14,9.92,-0.03,-0.01,-0.00,31.77
57168172,2045,1,215523,253189,1.30,0.13,9.92,-0.03,-0.01,-0.00,31.77
57208856,1956,1,215639,253725,1.29,0.14,9.90,-0.03,-0.01,-0.00,31.85
57249172,1969,1,215876,254020,1.30,0.16,9.90,-0.03,-0.01,-0.00,31.85
57289169,1963,1,216039,254324,1.30,0.14,9.91,-0.03,-0.01,-0.00,31.85
57329172,1966,1,216141,254633,1.29,0.13,9.93,-0.03,-0.01,-0.00,31.85
57369172,1943,1,216260,254963,1.30,0.15,9.91,-0.03,-0.01,-0.00,31.85
57409172,1950,1,216279,254343,1.29,0.16,9.90,-0.03,-0.01,-0.00,31.85
57449172,1936,1,215757,252365,1.28,0.13,9.93,-0.03,-0.01,-0.00,31.85
57489172,1947,1,215178,251312,1.29,0.15,9.93,-0.03,-0.01,-0.00,31.85
57529172,1946,1,214992,251335,1.29,0.15,9.90,-0.03,-0.01,-0.00,31.85
57569171,1958,1,215068,251581,1.29,0.14,9.92,-0.03,-0.01,-0.01,31.85
57609172,1931,1,215126,251846,1.30,0.12,9.89,-0.03,-0.01,-0.00,31.85
57649172,1933,1,215214,252217,1.28,0.16,9.91,-0.03,-0.01,-0.00,31.85
57689172,1936,1,215395,252304,1.27,0.14,9.93,-0.03,-0.01,-0.00,31.85
57729171,1936,1,215287,252148,1.30,0.14,9.93,-0.03,-0.01,-0.00,31.85
57769172,1936,1,215261,252266,1.30,0.12,9.94,-0.03,-0.01,-0.00,31.85
57809172,1938,1,215376,252528,1.30,0.12,9.92,-0.03,-0.01,-0.00,31.85
57849172,1938,1,215480,252729,1.29,0.13,9.95,-0.03,-0.01,-0.00,31.85
57889172,1939,1,215587,253102,1.30,0.13,9.93,-0.03,-0.01,-0.00,31.85
57929169,1921,1,215616,253314,1.29,0.13,9.92,-0.03,-0.01,-0.00,31.85
57969172,1937,1,215670,253702,1.29,0.13,9.91,-0.03,-0.01,-0.00,31.85
58009172,1914,1,215821,253832,1.30,0.16,9.93,-0.03,-0.01,-0.00,31.85
58049172,1923,1,215785,253323,1.28,0.14,9.91,-0.03,-0.01,-0.00,31.85
58089172,1924,1,215312,251476,1.29,0.13,9.91,-0.03,-0.01,-0.01,31.85
58129174,1927,1,214628,250432,1.28,0.12,9.93,-0.03,-0.01,-0.00,31.85
58169172,1927,1,214503,250387,1.28,0.14,9.93,-0.03,-0.01,-0.00,31.85
58209858,1931,1,214568,250538,1.29,0.15,9.92,-0.03,-0.01,-0.00,31.77
58248172,1968,1,214579,250680,1.29,0.13,9.91,-0.03,-0.01,-0.00,31.77
58288172,1967,1,214678,251137,1.28,0.15,9.91,-0.03,-0.01,-0.00,31.77
58328210,1995,1,214800,251324,1.30,0.14,9.89,-0.03,-0.01,-0.00,31.77
58368172,1963,1,214840,251253,1.26,0.14,9.94,-0.03,-0.01,-0.00,31.77
58408172,1959,1,214778,251366,1.29,0.14,9.91,-0.03,-0.01,-0.00,31.77
58448172,1959,1,214804,251692,1.30,0.14,9.92,-0.03,-0.01,-0.00,31.77
58488172,1964,1,215029,252041,1.31,0.12,9.93,-0.03,-0.01,-0.00,31.77
58528202,1968,1,215141,252338,1.29,0.13,9.89,-0.03,-0.01,-0.00,31.77
58568172,1956,1,215273,252635,1.29,0.13,9.91,-0.03,-0.01,-0.00,31.77
58608171,1943,1,215362,252857,1.27,0.12,9.93,-0.03,-0.01,-0.01,31.77
58648172,1954,1,215483,253197,1.29,0.12,9.92,-0.03,-0.01,-0.00,31.77
58688172,1942,1,215550,253042,1.30,0.13,9.91,-0.03,-0.01,-0.00,31.77
58728169,1939,1,215296,251492,1.31,0.13,9.91,-0.03,-0.01,-0.00,31.77
58768171,1962,1,214623,249830,1.29,0.15,9.90,-0.03,-0.01,-0.00,31.77
58808172,1952,1,214210,249423,1.28,0.13,9.90,-0.03,-0.01,-0.00,31.77
58848172,1974,1,214276,249416,1.29,0.12,9.93,-0.03,-0.01,-0.00,31.77
58888172,1950,1,214314,249507,1.28,0.14,9.95,-0.03,-0.01,-0.01,31.77
58928172,1947,1,214368,249972,1.29,0.14,9.91,-0.03,-0.01,-0.00,31.77
58968172,1953,1,214601,250350,1.26,0.14,9.92,-0.03,-0.01,-0.00,31.77
59008171,1945,1,214574,250499,1.30,0.15,9.92,-0.03,-0.01,-0.00,31.77
59048172,1961,1,214658,250614,1.29,0.15,9.90,-0.03,-0.01,-0.00,31.77
59088171,1951,1,214717,250770,1.30,0.14,9.92,-0.03,-0.01,-0.00,31.77
59128172,1954,1,214721,251216,1.30,0.12,9.94,-0.03,-0.01,-0.00,31.77
59168171,1963,1,214941,251508,1.31,0.14,9.93,-0.03,-0.01,-0.00,31.77
59208172,1968,1,214991,251855,1.30,0.13,9.90,-0.03,-0.01,-0.00,31.77
59248859,1923,1,215165,252084,1.29,0.13,9.93,-0.03,-0.01,-0.00,31.77
59289172,1921,1,215206,252252,1.29,0.13,9.90,-0.03,-0.01,-0.00,31.77
59329172,1920,1,215342,252520,1.30,0.14,9.93,-0.03,-0.01,-0.00,31.77
59369172,1919,1,215359,252712,1.29,0.16,9.91,-0.03,-0.01,-0.00,31.77
59409172,1907,1,215309,251696,1.28,0.14,9.92,-0.03,-0.01,-0.00,31.77
59449172,1904,1,214646,249737,1.30,0.14,9.90,-0.03,-0.01,-0.01,31.77
59489172,1927,1,214064,249084,1.29,0.15,9.92,-0.03,-0.01,-0.00,31.77
59529172,1922,1,213992,248975,1.29,0.15,9.91,-0.03,-0.01,-0.00,31.77
59569172,1921,1,213917,249101,1.29,0.14,9.92,-0.03,-0.01,-0.00,31.77
59609172,1936,1,214021,249370,1.30,0.13,9.89,-0.03,-0.01,-0.00,31.77
59649171,1921,1,214197,249915,1.31,0.14,9.92,-0.03,-0.01,-0.00,31.77
59689172,1917,1,214323,250022,1.28,0.13,9.93,-0.03,-0.01,-0.00,31.77
59729172,1904,1,214253,250179,1.30,0.13,9.89,-0.03,-0.01,-0.00,31.77
59769169,1925,1,214412,250324,1.26,0.15,9.93,-0.03,-0.01,-0.00,31.77
59809172,1947,1,214437,250730,1.30,0.14,9.92,-0.03,-0.01,-0.00,31.77
59849172,1920,1,214577,251069,1.27,0.14,9.90,-0.03,-0.01,-0.01,31.77
59889172,1909,1,214728,251543,1.30,0.15,9.94,-0.03,-0.01,-0.00,31.77
59929172,1919,1,214960,251875,1.29,0.13,9.92,-0.03,-0.01,-0.00,31.77
59967192,1981,1,215044,252149,1.30,0.15,9.92,-0.03,-0.01,-0.00,31.77
60007172,1995,1,215178,252470,1.31,0.15,9.89,-0.03,-0.01,-0.00,31.77
60047172,2013,1,215322,252755,1.28,0.13,9.92,-0.03,-0.01,-0.00,31.77
60087172,2001,1,215355,253001,1.27,0.13,9.92,-0.03,-0.01,-0.00,31.77
60127172,2000,1,215239,251421,1.29,0.14,9.91,-0.03,-0.01,-0.01,31.77
60167196,1984,1,214503,249878,1.30,0.16,9.93,-0.03,-0.01,-0.00,31.77
60207172,1994,1,214243,249334,1.30,0.15,9.92,-0.03,-0.01,-0.00,31.77
60247172,2015,1,214166,249457,1.28,0.16,9.92,-0.03,-0.01,-0.00,31.77
60287858,1925,1,214335,249575,1.29,0.15,9.96,-0.03,-0.01,-0.01,31.77
60328172,1969,1,214414,250019,1.29,0.13,9.90,-0.03,-0.01,-0.00,31.77
60368172,1936,1,214592,250527,1.30,0.14,9.93,-0.03,-0.01,-0.00,31.77
60408172,1952,1,214636,250698,1.28,0.16,9.94,-0.03,-0.01,-0.00,31.77
60448172,1955,1,214653,250797,1.30,0.15,9.89,-0.03,-0.01,-0.00,31.77
60488172,1941,1,214815,251116,1.28,0.13,9.91,-0.03,-0.01,-0.00,31.77
60528171,1932,1,214883,251612,1.30,0.13,9.90,-0.03,-0.01,-0.00,31.77
60568169,1919,1,215109,252026,1.30,0.15,9.92,-0.03,-0.01,-0.00,31.77
60608171,1915,1,215285,252431,1.30,0.13,9.90,-0.03,-0.01,-0.00,31.77
60648169,1921,1,215344,252779,1.29,0.13,9.94,-0.03,-0.01,-0.00,31.77
60688172,1924,1,215453,253129,1.29,0.14,9.91,-0.03,-0.01,-0.00,31.77
60728172,1938,1,215622,253439,1.27,0.14,9.92,-0.03,-0.01,-0.00,31.77
60768172,1926,1,215714,253689,1.30,0.14,9.92,-0.03,-0.01,-0.00,31.77
60808172,1921,1,215609,252880,1.30,0.12,9.92,-0.03,-0.01,-0.00,31.77
60848172,1919,1,215002,251001,1.29,0.14,9.94,-0.03,-0.01,-0.00,31.77
60888172,1947,1,214503,250069,1.29,0.14,9.92,-0.03,-0.01,-0.00,31.77
60928172,1919,1,214349,250190,1.30,0.16,9.94,-0.03,-0.01,-0.00,31.77
60968172,1955,1,214416,250256,1.30,0.16,9.95,-0.03,-0.01,-0.00,31.77
61008171,1930,1,214541,250576,1.30,0.15,9.90,-0.03,-0.01,-0.00,31.77
61048169,1928,1,214612,251120,1.30,0.14,9.91,-0.03,-0.01,-0.01,31.77
61088171,1931,1,214768,251140,1.29,0.13,9.92,-0.03,-0.01,-0.00,31.77
61128172,1930,1,214704,251104,1.31,0.13,9.92,-0.03,-0.01,-0.00,31.77
61168171,1904,1,214682,251307,1.30,0.13,9.93,-0.03,-0.01,-0.01,31.77
61208172,1910,1,214820,251588,1.29,0.13,9.93,-0.03,-0.01,-0.00,31.77
61248171,1906,1,214954,252029,1.32,0.12,9.91,-0.03,-0.01,-0.00,31.77
61288859,1895,1,215121,252260,1.29,0.15,9.92,-0.03,-0.01,-0.00,31.67
61327172,1941,1,215212,252631,1.28,0.16,9.90,-0.03,-0.01,-0.00,31.67
61367172,1951,1,215324,252923,1.30,0.15,9.92,-0.03,-0.01,-0.01,31.67
61407172,1970,1,215441,253118,1.30,0.13,9.94,-0.03,-0.01,-0.00,31.67
61447169,1970,1,215502,253051,1.30,0.14,9.93,-0.03,-0.01,-0.00,31.67
61487171,1951,1,215192,251317,1.29,0.14,9.92,-0.03,-0.01,-0.00,31.67
61527172,1955,1,214418,249836,1.30,0.16,9.93,-0.03,-0.01,-0.00,31.67
61567172,1965,1,214233,249392,1.30,0.15,9.94,-0.03,-0.01,-0.00,31.67
61607177,1967,1,214225,249576,1.29,0.14,9.92,-0.03,-0.01,-0.00,31.67
61647172,1969,1,214277,249845,1.29,0.16,9.92,-0.03,-0.01,-0.00,31.67
61687172,1968,1,214471,250311,1.29,0.15,9.93,-0.03,-0.01,-0.00,31.67
