timestamp_us,ecg,leads,ir,red,accX,accY,accZ,gyroX,gyroY,gyroZ,temp
1918487,1660,1,201130,232889,0.00,0.00,0.00,0.00,0.00,0.00,0.00
1948957,1404,1,201210,233092,0.54,-0.80,9.70,-0.03,-0.01,-0.00,34.43
1989199,1283,1,201198,233100,0.56,-0.84,9.95,-0.03,-0.01,-0.00,34.43
2029187,1251,1,201189,232531,0.56,-0.82,9.96,-0.03,-0.01,-0.00,34.43
2069188,1271,1,200902,231609,0.57,-0.84,9.96,-0.03,-0.01,-0.00,34.43
2109206,1347,1,200708,230948,0.55,-0.84,9.97,-0.03,-0.01,-0.00,34.43
2149187,1424,1,200667,230774,0.57,-0.81,9.95,-0.03,-0.01,-0.00,34.43
2189187,1495,1,200686,230804,0.55,-0.82,9.95,-0.03,-0.01,-0.00,34.43
2229187,1616,1,200715,231169,0.55,-0.82,9.96,-0.03,-0.01,-0.00,34.43
2269187,1686,1,200777,231515,0.55,-0.82,9.96,-0.04,-0.01,-0.01,34.43
2309211,1775,1,200700,231688,0.55,-0.80,9.91,-0.04,-0.01,-0.01,34.43
2349187,1808,1,200658,231788,0.55,-0.82,10.00,-0.04,-0.01,-0.01,34.43
2389188,1950,1,200590,232106,0.57,-0.84,9.94,-0.04,-0.01,-0.01,34.43
2429187,1972,1,200478,232217,0.56,-0.83,9.95,-0.05,-0.01,-0.02,34.43
2469193,2079,1,200243,232106,0.56,-0.84,9.97,-0.04,-0.01,-0.02,34.43
2509189,2085,1,200325,232316,0.49,-0.86,10.01,-0.02,-0.02,-0.00,34.43
2549193,2112,1,200761,232300,0.60,-0.83,9.96,-0.03,-0.02,-0.00,34.43
2589189,2121,1,200877,232218,0.57,-0.83,9.96,-0.03,-0.01,-0.00,34.43
2629193,2129,1,200917,232127,0.58,-0.84,9.97,-0.03,-0.01,-0.00,34.43
2669190,2177,1,200831,231734,0.53,-0.82,9.98,-0.03,-0.01,-0.00,34.43
2709193,2156,1,200528,230637,0.57,-0.82,9.96,-0.04,-0.01,-0.00,34.43
2749190,2197,1,200206,229781,0.57,-0.84,9.96,-0.03,-0.01,-0.00,34.43
2789193,2005,1,200061,229563,0.55,-0.84,9.95,-0.03,-0.01,-0.00,34.43
2829190,2059,1,199789,229502,0.56,-0.80,9.92,-0.07,-0.03,-0.01,34.43
2869193,2183,1,199554,229374,0.59,-0.86,9.97,-0.05,-0.03,-0.01,34.43
2909190,2030,1,199424,229371,0.57,-0.84,9.98,-0.04,-0.02,-0.00,34.43
2949193,2186,1,198908,229124,0.59,-0.88,9.96,-0.04,-0.03,-0.00,34.43
2989876,1902,1,199492,229077,0.61,-0.86,9.96,-0.04,-0.05,-0.00,34.07
3028195,1837,1,199906,229525,0.61,-0.87,9.94,-0.04,-0.03,-0.00,34.07
3068188,1530,1,200252,230139,0.64,-0.86,9.94,-0.04,-0.02,-0.00,34.07
3108193,1390,1,201424,230655,0.65,-0.85,9.95,-0.04,-0.02,-0.00,34.07
3148189,1675,1,201521,231424,0.61,-0.85,9.95,-0.04,-0.01,-0.00,34.07
3188192,1776,1,201800,231820,0.60,-0.87,9.99,-0.04,-0.02,-0.01,34.07
3228189,1919,1,201855,232153,0.65,-0.85,9.92,-0.04,-0.01,-0.01,34.07
3268193,2053,1,201723,232368,0.60,-0.86,9.98,-0.04,-0.00,-0.01,34.07
3308188,2220,1,201434,232300,0.62,-0.87,9.94,-0.04,-0.01,-0.01,34.07
3348193,2297,1,201119,231938,0.62,-0.89,9.94,-0.04,-0.01,-0.01,34.07
3388189,2358,1,200772,230917,0.60,-0.87,9.95,-0.03,-0.01,-0.01,34.07
3428193,2434,1,200507,229864,0.59,-0.87,9.96,-0.03,-0.02,-0.00,34.07
3468189,2441,1,200360,229392,0.64,-0.86,9.95,-0.03,-0.02,-0.00,34.07
3508192,2446,1,200493,229450,0.64,-0.87,9.94,-0.03,-0.02,-0.00,34.07
3548189,2447,1,200641,229839,0.62,-0.87,9.92,-0.03,-0.01,-0.00,34.07
3588192,2462,1,200896,230535,0.64,-0.86,9.95,-0.04,-0.02,-0.00,34.07
3628189,2490,1,201263,231134,0.64,-0.88,9.98,-0.04,-0.02,-0.00,34.07
3668193,2540,1,201436,231420,0.62,-0.87,9.93,-0.03,-0.01,-0.00,34.07
3708189,2559,1,201447,231529,0.63,-0.87,9.95,-0.03,-0.01,-0.01,34.07
3748228,2529,1,201478,231535,0.65,-0.89,9.96,-0.04,-0.01,-0.00,34.07
3788189,2477,1,201461,231557,0.63,-0.90,9.95,-0.03,-0.01,-0.00,34.07
3828193,2466,1,201519,231519,0.62,-0.89,9.98,-0.04,-0.01,-0.00,34.07
3868189,2384,1,201600,231672,0.66,-0.86,9.91,-0.03,-0.01,-0.00,34.07
3908193,2335,1,201719,231874,0.62,-0.87,9.97,-0.03,-0.01,-0.00,34.07
3948222,2224,1,201868,232166,0.63,-0.86,9.97,-0.03,-0.01,-0.00,34.07
3988193,2118,1,201905,232357,0.64,-0.89,9.92,-0.03,-0.01,-0.00,34.07
4028876,2047,1,201959,232381,0.64,-0.86,9.94,-0.03,-0.01,-0.00,33.87
4067192,2021,1,201835,231654,0.63,-0.89,9.96,-0.03,-0.01,-0.00,33.87
4107189,1973,1,201499,230666,0.62,-0.88,9.96,-0.03,-0.01,-0.00,33.87
4147192,1939,1,201238,230023,0.64,-0.87,9.94,-0.03,-0.01,-0.00,33.87
4187189,1850,1,201076,229868,0.63,-0.88,9.95,-0.03,-0.01,-0.00,33.87
4227192,1891,1,201043,230101,0.62,-0.88,9.97,-0.03,-0.01,-0.01,33.87
4267189,1842,1,201160,230593,0.65,-0.88,9.95,-0.03,-0.01,-0.00,33.87
4307192,1825,1,201260,231016,0.62,-0.87,9.94,-0.03,-0.01,-0.00,33.87
4347189,1781,1,201359,231116,0.59,-0.87,9.96,-0.03,-0.01,-0.00,33.87
4387193,1771,1,201388,231062,0.65,-0.87,9.96,-0.03,-0.01,-0.00,33.87
4427189,1863,1,201438,231112,0.63,-0.86,9.94,-0.03,-0.01,-0.01,33.87
4467192,1759,1,201470,231288,0.60,-0.89,9.95,-0.03,-0.01,-0.00,33.87
4507189,1786,1,201509,231397,0.64,-0.87,9.95,-0.03,-0.01,-0.00,33.87
4547192,1805,1,201534,231387,0.63,-0.87,9.93,-0.02,-0.00,-0.00,33.87
4587189,1747,1,201380,231466,0.60,-0.85,9.94,-0.03,-0.01,-0.00,33.87
4627192,1531,1,201451,231527,0.61,-0.85,9.97,-0.03,-0.01,-0.00,33.87
4667190,1530,1,201568,231332,0.62,-0.87,9.99,-0.03,-0.01,-0.00,33.87
4707193,1578,1,201398,230368,0.61,-0.87,9.92,-0.03,-0.01,-0.00,33.87
4747189,1643,1,201032,228829,0.61,-0.86,9.94,-0.03,-0.01,-0.00,33.87
4787193,1728,1,200667,227754,0.62,-0.85,9.95,-0.04,-0.01,-0.00,33.87
4827189,1802,1,200538,227576,0.64,-0.87,9.93,-0.03,-0.01,-0.00,33.87
4867192,1893,1,200527,227514,0.65,-0.85,9.92,-0.03,-0.01,-0.00,33.87
4907189,1949,1,200590,227830,0.62,-0.86,9.95,-0.03,-0.01,-0.00,33.87
4947192,2002,1,200757,228031,0.63,-0.89,9.94,-0.03,-0.01,-0.00,33.87
4987189,2058,1,200815,228262,0.60,-0.87,9.96,-0.03,-0.01,-0.00,33.87
5027193,2085,1,200903,228428,0.64,-0.86,9.97,-0.04,-0.01,-0.00,33.87
5067876,2077,1,200927,228679,0.64,-0.85,9.96,-0.03,-0.01,-0.00,33.79
5108193,2096,1,200986,228902,0.61,-0.88,9.94,-0.03,-0.01,-0.00,33.79
5148189,2131,1,201069,229066,0.62,-0.87,9.94,-0.03,-0.01,-0.00,33.79
5188241,2122,1,201133,229199,0.65,-0.88,9.95,-0.03,-0.01,-0.00,33.79
5228190,2128,1,201170,229180,0.62,-0.86,9.96,-0.03,-0.01,-0.00,33.79
5268193,2130,1,201199,229204,0.62,-0.86,9.95,-0.03,-0.01,-0.00,33.79
5308190,2145,1,201153,229145,0.64,-0.89,9.96,-0.03,-0.01,-0.00,33.79
5348193,2155,1,201065,228128,0.63,-0.86,9.96,-0.03,-0.01,-0.00,33.79
5387230,2157,1,200548,225922,0.62,-0.87,9.93,-0.03,-0.01,-0.00,33.79
5427193,2130,1,199950,224459,0.62,-0.86,9.95,-0.03,-0.01,-0.00,33.79
5467189,2117,1,199643,224112,0.62,-0.86,9.98,-0.03,-0.01,-0.00,33.79
5507193,2066,1,199666,224280,0.63,-0.87,9.95,-0.03,-0.01,-0.00,33.79
5547189,2089,1,199809,224918,0.61,-0.86,9.96,-0.03,-0.01,-0.00,33.79
5587212,2065,1,200072,226158,0.62,-0.86,9.94,-0.03,-0.01,-0.01,33.79
5627189,2047,1,200436,226958,0.61,-0.85,9.97,-0.03,-0.01,-0.00,33.79
5667192,2022,1,200627,227266,0.61,-0.89,9.97,-0.03,-0.01,-0.00,33.79
5707189,2055,1,200728,227457,0.65,-0.86,9.97,-0.03,-0.01,-0.00,33.79
5747193,2047,1,200819,227560,0.63,-0.86,9.96,-0.03,-0.01,-0.00,33.79
5787189,2057,1,200829,227825,0.61,-0.85,9.96,-0.03,-0.01,-0.00,33.79
5827192,2046,1,200959,228073,0.63,-0.87,9.97,-0.03,-0.01,-0.00,33.79
5867189,2006,1,201057,228563,0.61,-0.86,9.96,-0.03,-0.01,-0.00,33.79
5907192,2007,1,201238,229246,0.62,-0.85,9.95,-0.03,-0.01,-0.01,33.79
5947189,1998,1,201453,229717,0.62,-0.85,9.96,-0.03,-0.01,-0.00,33.79
5987193,1970,1,201566,229966,0.63,-0.86,9.94,-0.03,-0.01,-0.00,33.79
6027189,1996,1,201580,229639,0.60,-0.87,9.96,-0.03,-0.01,-0.00,33.79
6067192,1975,1,201280,227968,0.61,-0.86,9.94,-0.03,-0.01,-0.00,33.79
6107875,1961,1,200847,226503,0.64,-0.86,9.96,-0.04,-0.01,-0.00,33.57
6146193,2039,1,200540,225813,0.62,-0.85,9.96,-0.03,-0.01,-0.00,33.57
6186190,2033,1,200430,225561,0.61,-0.86,9.96,-0.03,-0.01,-0.00,33.57
6226193,2053,1,200375,225597,0.63,-0.87,9.96,-0.03,-0.01,-0.00,33.57
6266189,2043,1,200509,226156,0.64,-0.85,9.95,-0.03,-0.01,-0.00,33.57
6306193,2053,1,200734,226895,0.61,-0.88,9.95,-0.04,-0.01,-0.00,33.57
6346190,2081,1,200928,227577,0.63,-0.86,9.95,-0.04,-0.01,-0.01,33.57
6386192,2061,1,201076,227920,0.62,-0.85,9.93,-0.03,-0.01,-0.00,33.57
6426189,2079,1,201214,228307,0.63,-0.89,9.96,-0.03,-0.01,-0.00,33.57
6466193,2074,1,201329,228731,0.62,-0.88,9.93,-0.04,-0.01,-0.00,33.57
6506189,2058,1,201484,229126,0.63,-0.87,9.94,-0.03,-0.01,-0.00,33.57
6546192,2089,1,201632,229597,0.62,-0.84,9.97,-0.03,-0.01,-0.00,33.57
6586190,2070,1,201732,229911,0.64,-0.86,9.95,-0.03,-0.01,-0.00,33.57
6626193,2079,1,201886,230323,0.63,-0.86,9.94,-0.03,-0.01,-0.00,33.57
6666189,2097,1,201997,230598,0.62,-0.86,9.96,-0.03,-0.01,-0.00,33.57
6706192,2098,1,202084,230829,0.64,-0.85,9.93,-0.03,-0.01,-0.00,33.57
6746190,2085,1,202038,230409,0.62,-0.88,9.96,-0.03,-0.01,-0.00,33.57
6786192,2078,1,201750,229019,0.63,-0.88,9.95,-0.03,-0.01,-0.00,33.57
6826189,2073,1,201338,228040,0.65,-0.86,9.97,-0.03,-0.01,-0.00,33.57
6866193,2064,1,201166,227821,0.61,-0.87,9.93,-0.03,-0.01,-0.00,33.57
6906189,2069,1,201151,227847,0.64,-0.87,9.99,-0.03,-0.01,-0.00,33.57
6946193,2086,1,201235,228124,0.63,-0.88,9.94,-0.03,-0.01,-0.00,33.57
6986189,2069,1,201374,228542,0.64,-0.87,9.94,-0.03,-0.01,-0.00,33.57
7026199,2071,1,201505,228886,0.60,-0.86,9.95,-0.03,-0.01,-0.00,33.57
7066189,2081,1,201582,229121,0.62,-0.86,9.96,-0.04,-0.01,-0.00,33.57
7106192,2047,1,201627,229393,0.62,-0.89,9.95,-0.03,-0.01,-0.00,33.57
7146876,2046,1,201759,229513,0.62,-0.87,9.97,-0.03,-0.01,-0.00,33.49
7187193,2043,1,201794,229600,0.63,-0.87,9.95,-0.03,-0.01,-0.00,33.49
7227217,2014,1,201834,229736,0.62,-0.87,9.98,-0.03,-0.01,-0.00,33.49
7267193,2057,1,201875,229764,0.62,-0.88,9.96,-0.03,-0.01,-0.00,33.49
7307190,2031,1,201921,229897,0.62,-0.86,9.94,-0.03,-0.01,-0.00,33.49
7347193,2003,1,201971,230005,0.60,-0.86,9.94,-0.03,-0.01,-0.00,33.49
7387189,2031,1,202052,230136,0.63,-0.86,9.95,-0.03,-0.01,-0.00,33.49
7427224,2012,1,202080,230053,0.63,-0.87,9.97,-0.03,-0.01,-0.00,33.49
7467189,2015,1,201937,228801,0.62,-0.87,9.94,-0.03,-0.01,-0.00,33.49
7507193,2032,1,201442,227311,0.63,-0.87,9.94,-0.03,-0.01,-0.01,33.49
7547190,2007,1,201192,226663,0.62,-0.87,9.96,-0.03,-0.01,-0.00,33.49
7587193,2018,1,201032,226504,0.62,-0.87,9.95,-0.03,-0.01,-0.00,33.49
7627190,2015,1,201033,226616,0.63,-0.87,9.93,-0.03,-0.01,-0.00,33.49
7667193,2010,1,201083,226950,0.63,-0.85,9.95,-0.03,-0.01,-0.00,33.49
7707189,2011,1,201150,227248,0.62,-0.86,9.97,-0.03,-0.01,-0.00,33.49
7747193,2011,1,201250,227530,0.63,-0.86,9.97,-0.03,-0.01,-0.00,33.49
7787190,2009,1,201296,227629,0.64,-0.87,9.94,-0.03,-0.01,-0.00,33.49
7827193,2016,1,201323,227683,0.61,-0.87,9.94,-0.03,-0.01,-0.00,33.49
7867189,1977,1,201348,227821,0.64,-0.86,9.98,-0.03,-0.01,-0.00,33.49
7907193,2000,1,201480,228151,0.62,-0.88,9.94,-0.03,-0.01,-0.00,33.49
7947190,1998,1,201548,228425,0.62,-0.87,9.95,-0.03,-0.01,-0.00,33.49
7987193,2009,1,201672,228771,0.62,-0.88,9.92,-0.03,-0.01,-0.00,33.49
8027190,2015,1,201686,229064,0.63,-0.85,9.95,-0.03,-0.01,-0.00,33.49
8067193,2000,1,201764,229409,0.63,-0.88,9.96,-0.03,-0.01,-0.00,33.49
8107190,1997,1,201840,229651,0.61,-0.87,9.93,-0.03,-0.01,-0.00,33.49
8147880,1963,1,201869,229255,0.63,-0.83,9.94,-0.03,-0.01,-0.00,33.41
8186189,1998,1,201533,227605,0.62,-0.86,9.96,-0.03,-0.01,-0.00,33.41
8226193,1999,1,201025,226356,0.62,-0.86,9.95,-0.03,-0.01,-0.00,33.41
8266189,1975,1,200765,225922,0.61,-0.85,9.96,-0.03,-0.01,-0.00,33.41
8306193,1986,1,200723,225986,0.61,-0.86,9.96,-0.03,-0.01,-0.00,33.41
8346189,1964,1,200820,226328,0.65,-0.86,9.94,-0.03,-0.01,-0.00,33.41
8386193,2085,1,200976,226903,0.63,-0.86,9.97,-0.03,-0.01,-0.00,33.41
8426189,2155,1,201157,227366,0.65,-0.88,9.92,-0.03,-0.01,-0.00,33.41
8467193,2122,1,201230,227559,0.60,-0.86,9.96,-0.03,-0.01,-0.00,33.41
8507190,2142,1,201246,227734,0.63,-0.86,9.95,-0.03,-0.01,-0.00,33.41
8547193,2121,1,201344,228054,0.62,-0.88,9.96,-0.03,-0.01,-0.00,33.41
8587188,2112,1,201495,228325,0.64,-0.86,9.96,-0.03,-0.01,-0.00,33.41
8625192,2167,1,201538,228598,0.63,-0.87,9.94,-0.03,-0.01,-0.00,33.41
8665205,2114,1,201631,228917,0.61,-0.85,9.93,-0.03,-0.01,-0.00,33.41
8705192,2064,1,201690,229082,0.62,-0.88,9.97,-0.03,-0.01,-0.00,33.41
8745189,2029,1,201807,229344,0.62,-0.84,9.95,-0.03,-0.01,-0.00,33.41
8785192,2017,1,201874,229540,0.62,-0.89,9.96,-0.03,-0.01,-0.00,33.41
8825189,2025,1,201956,229767,0.60,-0.85,9.96,-0.03,-0.01,-0.00,33.41
8865222,1971,1,201987,229772,0.60,-0.86,9.97,-0.03,-0.01,-0.00,33.41
8905188,1930,1,201860,228672,0.63,-0.85,9.94,-0.03,-0.01,-0.00,33.41
8945192,1897,1,201352,226918,0.63,-0.87,9.97,-0.03,-0.01,-0.00,33.41
8985189,1917,1,200946,226167,0.61,-0.87,9.93,-0.03,-0.01,-0.00,33.41
9025212,1949,1,200826,226059,0.62,-0.86,9.98,-0.03,-0.01,-0.00,33.41
9065210,1936,1,200829,226199,0.62,-0.87,9.96,-0.03,-0.01,-0.00,33.41
9105192,2006,1,200953,226664,0.61,-0.87,9.97,-0.03,-0.01,-0.00,33.41
9145189,2032,1,201114,227243,0.62,-0.87,9.93,-0.03,-0.01,-0.00,33.41
9185879,2000,1,201269,227490,0.62,-0.86,9.96,-0.03,-0.01,-0.01,33.25
9226193,2034,1,201277,227649,0.62,-0.87,9.96,-0.03,-0.01,-0.00,33.25
9266193,2067,1,201394,227919,0.62,-0.87,9.95,-0.03,-0.01,-0.00,33.25
9306190,2064,1,201449,228177,0.61,-0.86,9.96,-0.03,-0.01,-0.00,33.25
9346193,2086,1,201566,228514,0.61,-0.85,9.93,-0.03,-0.01,-0.00,33.25
9386189,2095,1,201633,228824,0.61,-0.86,9.94,-0.03,-0.01,-0.00,33.25
9426193,2096,1,201716,229039,0.62,-0.86,9.98,-0.03,-0.01,-0.01,33.25
9466190,2106,1,201781,229285,0.62,-0.87,9.94,-0.03,-0.01,-0.00,33.25
9505192,2167,1,201779,229517,0.61,-0.88,9.95,-0.03,-0.01,-0.00,33.25
9545189,2142,1,201859,229729,0.62,-0.85,9.96,-0.03,-0.01,-0.00,33.25
9585192,2117,1,201989,229970,0.62,-0.87,9.95,-0.03,-0.01,-0.00,33.25
9625189,2130,1,201997,229934,0.63,-0.85,9.93,-0.03,-0.01,-0.00,33.25
9665192,2095,1,201801,228586,0.61,-0.85,9.95,-0.03,-0.01,-0.00,33.25
9705189,2135,1,201309,227014,0.62,-0.85,9.95,-0.03,-0.01,-0.00,33.25
9745192,2119,1,200977,226461,0.63,-0.85,9.94,-0.03,-0.01,-0.00,33.25
9785189,2128,1,200933,226401,0.63,-0.87,9.95,-0.03,-0.01,-0.00,33.25
9825192,2135,1,200997,226672,0.62,-0.86,9.95,-0.03,-0.01,-0.00,33.25
9865189,2131,1,201152,227315,0.62,-0.88,9.95,-0.03,-0.01,-0.00,33.25
9905192,2130,1,201358,227850,0.63,-0.87,9.95,-0.03,-0.01,-0.00,33.25
9945189,2146,1,201511,228192,0.60,-0.85,9.96,-0.03,-0.01,-0.01,33.25
9985192,2151,1,201611,228456,0.63,-0.84,9.97,-0.03,-0.01,-0.00,33.25
10025198,2167,1,201722,228753,0.61,-0.86,9.94,-0.03,-0.01,-0.00,33.25
10065192,2189,1,201835,229073,0.61,-0.84,9.93,-0.03,-0.01,-0.00,33.25
10105192,2215,1,201977,229419,0.63,-0.85,9.95,-0.03,-0.01,-0.01,33.25
10145193,2256,1,202081,229794,0.62,-0.86,9.96,-0.03,-0.01,-0.00,33.25
10185878,2165,1,202263,230057,0.62,-0.86,9.95,-0.03,-0.01,-0.00,33.05
10226193,2165,1,202343,230314,0.63,-0.87,9.96,-0.03,-0.01,-0.00,33.05
10266193,2170,1,202498,230617,0.62,-0.88,9.98,-0.03,-0.01,-0.00,33.05
10306193,2129,1,202613,230979,0.62,-0.88,9.97,-0.03,-0.01,-0.00,33.05
10346190,2138,1,202734,231209,0.62,-0.87,9.94,-0.03,-0.01,-0.00,33.05
10386193,2112,1,202797,230736,0.63,-0.87,9.96,-0.03,-0.01,-0.00,33.05
10426193,2078,1,202420,229325,0.63,-0.86,9.96,-0.03,-0.01,-0.00,33.05
10466193,2081,1,202031,228376,0.62,-0.86,9.98,-0.03,-0.01,-0.00,33.05
10505189,2097,1,201841,228148,0.63,-0.86,9.94,-0.03,-0.01,-0.00,33.05
10545192,2096,1,201863,228208,0.62,-0.85,9.94,-0.03,-0.01,-0.00,33.05
10585193,2064,1,201977,228705,0.63,-0.86,9.95,-0.03,-0.01,-0.00,33.05
10625192,2041,1,202152,229241,0.64,-0.86,9.96,-0.03,-0.01,-0.00,33.05
10665189,2018,1,202226,229491,0.64,-0.87,9.95,-0.03,-0.01,-0.00,33.05
10705192,2006,1,202302,229585,0.62,-0.86,9.96,-0.03,-0.01,-0.00,33.05
10745193,2008,1,202302,229710,0.62,-0.86,9.97,-0.03,-0.01,-0.00,33.05
10785193,2023,1,202412,229821,0.62,-0.86,9.96,-0.03,-0.01,-0.00,33.05
10825189,2033,1,202442,229984,0.62,-0.85,9.95,-0.03,-0.01,-0.00,33.05
10865192,2009,1,202490,230177,0.63,-0.86,9.93,-0.03,-0.01,-0.00,33.05
10905189,2011,1,202556,230254,0.62,-0.87,9.96,-0.03,-0.01,-0.00,33.05
10945192,2016,1,202558,230518,0.62,-0.86,9.94,-0.03,-0.01,-0.00,33.05
10985189,2022,1,202698,230706,0.62,-0.87,9.96,-0.03,-0.01,-0.00,33.05
11025199,2027,1,202706,230959,0.63,-0.86,9.96,-0.03,-0.01,-0.00,33.05
11065189,2004,1,202777,230895,0.63,-0.85,9.96,-0.03,-0.01,-0.00,33.05
11105193,2026,1,202552,229612,0.63,-0.86,9.96,-0.03,-0.01,-0.01,33.05
11145193,2027,1,202123,227886,0.63,-0.86,9.94,-0.03,-0.01,-0.00,33.05
11185879,2006,1,201739,227365,0.62,-0.89,9.96,-0.03,-0.01,-0.00,33.03
11226193,2009,1,201639,227425,0.62,-0.85,9.98,-0.03,-0.01,-0.00,33.03
11266193,2005,1,201771,227660,0.63,-0.88,9.94,-0.03,-0.01,-0.00,33.03
11306193,2006,1,201885,228172,0.63,-0.89,9.96,-0.03,-0.01,-0.00,33.03
11346193,2015,1,202026,228549,0.63,-0.87,9.96,-0.03,-0.01,-0.00,33.03
11386190,2006,1,202078,228785,0.63,-0.86,9.97,-0.03,-0.01,-0.01,33.03
11426193,2023,1,202148,228960,0.63,-0.86,9.96,-0.03,-0.01,-0.01,33.03
11464192,2109,1,202215,229101,0.63,-0.87,9.93,-0.03,-0.01,-0.00,33.03
11504192,2131,1,202269,229142,0.62,-0.88,9.95,-0.03,-0.01,-0.00,33.03
11544192,2096,1,202319,229322,0.62,-0.86,9.96,-0.03,-0.01,-0.00,33.03
11584192,2111,1,202445,229545,0.62,-0.86,9.94,-0.03,-0.01,-0.00,33.03
11624189,2110,1,202498,229728,0.63,-0.86,9.96,-0.03,-0.01,-0.00,33.03
11664192,2107,1,202603,229943,0.63,-0.84,9.95,-0.03,-0.01,-0.00,33.03
11704189,2096,1,202709,230298,0.62,-0.87,9.94,-0.03,-0.01,-0.01,33.03
11744192,2101,1,202846,230520,0.62,-0.87,9.97,-0.03,-0.01,-0.00,33.03
11784189,2114,1,202757,230090,0.61,-0.86,9.93,-0.03,-0.01,-0.00,33.03
11824192,2127,1,202384,228224,0.62,-0.86,9.96,-0.03,-0.01,-0.00,33.03
11864192,2119,1,201844,226800,0.62,-0.87,9.95,-0.03,-0.01,-0.00,33.03
11904192,2097,1,201562,226412,0.62,-0.86,9.96,-0.03,-0.01,-0.00,33.03
11944193,2108,1,201504,226483,0.61,-0.88,9.96,-0.03,-0.01,-0.00,33.03
11984192,2097,1,201542,226674,0.62,-0.85,9.93,-0.03,-0.01,-0.00,33.03
12024214,2102,1,201666,227139,0.59,-0.86,9.93,-0.03,-0.01,-0.00,33.03
12064192,2096,1,201853,227607,0.61,-0.85,9.94,-0.03,-0.01,-0.00,33.03
12104192,2098,1,201950,227983,0.63,-0.86,9.97,-0.03,-0.01,-0.00,33.03
12144199,2095,1,202019,228228,0.63,-0.86,9.93,-0.03,-0.01,-0.00,33.03
12184193,2112,1,202024,228312,0.62,-0.85,9.95,-0.03,-0.01,-0.00,33.03
12224879,2031,1,202092,228521,0.62,-0.87,9.92,-0.03,-0.01,-0.00,32.85
12265193,2022,1,202206,228833,0.63,-0.86,9.94,-0.03,-0.01,-0.00,32.85
12305193,2039,1,202357,229292,0.62,-0.85,9.95,-0.03,-0.01,-0.00,32.85
12345230,2019,1,202441,229661,0.61,-0.86,9.96,-0.03,-0.01,-0.00,32.85
12385193,2045,1,202549,229765,0.62,-0.86,9.94,-0.03,-0.01,-0.00,32.85
12425193,2026,1,202613,229831,0.63,-0.86,9.97,-0.03,-0.01,-0.00,32.85
12465192,2059,1,202708,230163,0.62,-0.85,9.95,-0.03,-0.01,-0.01,32.85
12505193,2042,1,202766,230233,0.63,-0.86,9.95,-0.03,-0.01,-0.01,32.85
12545193,2034,1,202586,228969,0.60,-0.86,9.97,-0.03,-0.01,-0.01,32.85
12585190,2037,1,202071,227272,0.60,-0.86,9.98,-0.03,-0.01,-0.00,32.85
12625193,2010,1,201680,226384,0.61,-0.84,9.94,-0.03,-0.01,-0.00,32.85
12665190,2029,1,201516,226173,0.64,-0.88,9.96,-0.03,-0.01,-0.00,32.85
12705193,2032,1,201594,226621,0.64,-0.86,9.97,-0.03,-0.01,-0.00,32.85
12745193,2015,1,201792,227501,0.64,-0.86,9.97,-0.04,-0.01,-0.00,32.85
12785193,2013,1,202091,227990,0.62,-0.87,9.94,-0.03,-0.01,-0.00,32.85
12825190,2039,1,202172,227911,0.61,-0.85,9.94,-0.03,-0.01,-0.00,32.85
12865193,2031,1,202156,227749,0.62,-0.86,9.95,-0.03,-0.01,-0.00,32.85
12905190,2035,1,202202,228084,0.64,-0.88,9.96,-0.03,-0.01,-0.00,32.85
12945193,2026,1,202335,228713,0.62,-0.86,9.96,-0.03,-0.01,-0.00,32.85
12985193,2035,1,202576,229120,0.59,-0.85,9.98,-0.03,-0.01,-0.00,32.85
13025200,2031,1,202665,229121,0.62,-0.88,9.94,-0.03,-0.01,-0.00,32.85
13065193,2028,1,202639,228940,0.62,-0.87,9.96,-0.03,-0.01,-0.00,32.85
13105193,2041,1,202634,229179,0.62,-0.85,9.95,-0.03,-0.01,-0.00,32.85
13145193,2032,1,202787,229882,0.62,-0.85,9.94,-0.03,-0.01,-0.01,32.85
13185193,2025,1,202979,230520,0.62,-0.87,9.97,-0.03,-0.01,-0.00,32.85
13225879,2006,1,203163,230917,0.61,-0.87,9.96,-0.03,-0.01,-0.00,32.85
13264192,2071,1,203246,230878,0.61,-0.87,9.97,-0.03,-0.01,-0.00,32.85
13304189,2041,1,203103,229670,0.62,-0.86,9.95,-0.03,-0.01,-0.00,32.85
13344192,2041,1,202594,227987,0.63,-0.89,9.96,-0.03,-0.01,-0.00,32.85
13384190,2018,1,202197,227488,0.62,-0.86,9.94,-0.03,-0.01,-0.01,32.85
13424193,2041,1,202188,227480,0.62,-0.85,9.95,-0.03,-0.01,-0.00,32.85
13464189,2015,1,202140,227520,0.61,-0.86,9.94,-0.03,-0.01,-0.00,32.85
13504192,2016,1,202094,227402,0.62,-0.85,9.97,-0.03,-0.01,-0.00,32.85
13544189,1994,1,202059,227451,0.62,-0.87,9.95,-0.03,-0.01,-0.00,32.85
13584192,2021,1,202143,228062,0.62,-0.85,9.94,-0.03,-0.01,-0.00,32.85
13624189,1946,1,202505,228821,0.63,-0.86,9.96,-0.03,-0.01,-0.01,32.85
13664192,2101,1,202720,229266,0.61,-0.86,9.95,-0.04,-0.01,-0.00,32.85
13704192,2081,1,202799,229376,0.60,-0.85,9.95,-0.03,-0.01,-0.00,32.85
13744192,2085,1,202796,229296,0.62,-0.85,9.99,-0.03,-0.01,-0.00,32.85
13784192,2077,1,202834,229677,0.62,-0.87,9.95,-0.03,-0.01,-0.00,32.85
13824192,2030,1,203052,230610,0.61,-0.87,9.96,-0.04,-0.01,-0.00,32.85
13864190,2065,1,203468,231329,0.62,-0.84,9.95,-0.04,-0.01,-0.01,32.85
13904192,2155,1,203658,231473,0.61,-0.86,9.94,-0.03,-0.01,-0.00,32.85
13944190,2190,1,203661,231472,0.60,-0.85,9.96,-0.03,-0.01,-0.00,32.85
13984199,2203,1,203678,231599,0.60,-0.89,9.95,-0.03,-0.01,-0.00,32.85
14024215,2224,1,203798,232077,0.62,-0.86,9.98,-0.03,-0.01,-0.00,32.85
14064192,2212,1,203978,232051,0.62,-0.87,9.95,-0.04,-0.01,-0.00,32.85
14104190,2151,1,203817,230706,0.63,-0.86,9.95,-0.04,-0.01,-0.01,32.85
14144193,2135,1,203371,229647,0.63,-0.87,9.96,-0.03,-0.01,-0.00,32.85
14184190,2097,1,203149,229042,0.62,-0.86,9.97,-0.03,-0.01,-0.00,32.85
14224192,2083,1,203037,228957,0.61,-0.85,9.96,-0.03,-0.01,-0.00,32.85
14264880,2073,1,203141,229706,0.62,-0.86,9.95,-0.03,-0.01,-0.00,32.81
14303192,2100,1,203446,230645,0.63,-0.86,9.97,-0.04,-0.01,-0.01,32.81
14343192,2107,1,203583,231239,0.61,-0.86,9.95,-0.04,-0.01,-0.01,32.81
14383192,2105,1,203728,231282,0.58,-0.86,9.96,-0.03,-0.01,-0.00,32.81
14423192,2057,1,203674,231076,0.62,-0.86,9.97,-0.03,-0.01,-0.00,32.81
14463192,2045,1,203682,231144,0.63,-0.85,9.94,-0.03,-0.01,-0.00,32.81
14503189,2035,1,203770,231607,0.63,-0.87,9.94,-0.03,-0.01,-0.00,32.81
14543192,2032,1,203864,232049,0.61,-0.86,9.96,-0.03,-0.01,-0.00,32.81
14583192,2039,1,203921,232139,0.60,-0.87,9.94,-0.03,-0.01,-0.00,32.81
14623192,2032,1,203879,232060,0.60,-0.86,9.97,-0.03,-0.01,-0.00,32.81
14663189,2012,1,203811,231853,0.61,-0.86,9.94,-0.03,-0.01,-0.00,32.81
14703192,1970,1,203844,232137,0.62,-0.86,9.95,-0.03,-0.01,-0.00,32.81
14743192,1965,1,203873,232449,0.61,-0.84,9.96,-0.03,-0.01,-0.00,32.81
14783192,1943,1,203851,231546,0.63,-0.86,9.96,-0.03,-0.01,-0.00,32.81
14823189,1901,1,203367,229503,0.62,-0.85,9.96,-0.03,-0.01,-0.00,32.81
14863192,1962,1,202801,227998,0.60,-0.84,9.95,-0.03,-0.01,-0.00,32.81
14903189,1954,1,202447,227586,0.63,-0.85,9.94,-0.03,-0.01,-0.00,32.81
14943192,1975,1,202534,228276,0.62,-0.86,9.96,-0.03,-0.01,-0.00,32.81
14983189,1982,1,202810,229129,0.62,-0.85,9.96,-0.03,-0.01,-0.01,32.81
15023202,2004,1,203002,229743,0.62,-0.85,9.96,-0.03,-0.01,-0.00,32.81
15063193,1974,1,203056,229527,0.60,-0.84,9.95,-0.03,-0.01,-0.00,32.81
15103192,2040,1,202929,228708,0.63,-0.86,9.93,-0.03,-0.01,-0.00,32.81
15143193,2027,1,202687,228164,0.63,-0.87,9.96,-0.03,-0.01,-0.00,32.81
15183192,2015,1,202759,228843,0.61,-0.86,9.97,-0.03,-0.01,-0.00,32.81
15223192,2041,1,203115,229755,0.64,-0.85,9.96,-0.04,-0.01,-0.01,32.81
15263192,2069,1,203404,230268,0.63,-0.85,9.96,-0.04,-0.01,-0.00,32.81
15303879,2083,1,203395,230082,0.59,-0.84,9.95,-0.03,-0.01,-0.00,32.77
15344193,2069,1,203424,229740,0.61,-0.87,9.97,-0.03,-0.01,-0.00,32.77
15384193,2244,1,203576,230030,0.62,-0.87,9.96,-0.03,-0.01,-0.00,32.77
15424196,2408,1,203907,231161,0.63,-0.86,9.96,-0.04,-0.01,-0.00,32.77
15464193,2513,1,204151,231922,0.62,-0.85,9.96,-0.04,-0.01,-0.00,32.77
15504193,2537,1,204411,231676,0.62,-0.84,9.97,-0.04,-0.01,-0.00,32.77
15544190,2498,1,203922,229350,0.62,-0.85,9.98,-0.03,-0.01,-0.00,32.77
15584193,2480,1,203166,227373,0.64,-0.87,9.96,-0.03,-0.01,-0.00,32.77
15624229,2430,1,202865,227287,0.62,-0.85,9.94,-0.03,-0.01,-0.00,32.77
15664193,2368,1,203061,228003,0.61,-0.85,9.97,-0.04,-0.01,-0.00,32.77
15704193,2312,1,203155,228588,0.61,-0.85,9.96,-0.03,-0.01,-0.00,32.77
15744193,2250,1,203410,228938,0.62,-0.85,9.96,-0.03,-0.01,-0.00,32.77
15784193,2179,1,203428,228947,0.59,-0.85,9.93,-0.03,-0.01,-0.00,32.77
15824208,2119,1,203259,228927,0.62,-0.85,9.95,-0.03,-0.01,-0.00,32.77
15864190,2090,1,203327,229523,0.61,-0.83,9.93,-0.03,-0.01,-0.00,32.77
15904193,2032,1,203666,230322,0.63,-0.86,9.93,-0.03,-0.01,-0.00,32.77
15944193,2025,1,203927,230718,0.61,-0.86,9.94,-0.03,-0.01,-0.00,32.77
15984193,2001,1,204066,230629,0.62,-0.86,9.94,-0.03,-0.01,-0.00,32.77
16024218,1962,1,203848,230412,0.62,-0.86,9.97,-0.03,-0.01,-0.00,32.77
16064193,1922,1,203970,230851,0.61,-0.86,9.93,-0.03,-0.01,-0.00,32.77
16104190,1872,1,204241,231610,0.63,-0.85,9.96,-0.03,-0.01,-0.00,32.77
16144193,1871,1,204486,232080,0.62,-0.85,9.95,-0.04,-0.01,-0.00,32.77
16184193,1825,1,204511,232102,0.61,-0.85,9.96,-0.03,-0.01,-0.00,32.77
16224193,1846,1,204401,231899,0.61,-0.87,9.94,-0.03,-0.01,-0.00,32.77
16264188,1799,1,204344,231262,0.61,-0.86,9.95,-0.03,-0.01,-0.00,32.77
16304876,1802,1,204128,229864,0.64,-0.84,9.92,-0.03,-0.01,-0.00,32.83
16343190,1805,1,203728,229015,0.60,-0.84,9.96,-0.04,-0.01,-0.00,32.83
16383193,1802,1,203592,228866,0.61,-0.86,9.93,-0.03,-0.01,-0.00,32.83
16423193,1765,1,203526,228429,0.63,-0.84,9.97,-0.03,-0.01,-0.00,32.83
16463192,1773,1,203400,228243,0.61,-0.84,9.93,-0.03,-0.01,-0.00,32.83
16503192,1766,1,203567,229129,0.61,-0.85,9.95,-0.03,-0.01,-0.01,32.83
16543192,1783,1,203851,230083,0.61,-0.85,9.96,-0.03,-0.01,-0.00,32.83
16583192,1828,1,204103,230196,0.60,-0.87,9.96,-0.04,-0.01,-0.00,32.83
16623193,1857,1,204044,229674,0.61,-0.84,9.95,-0.03,-0.01,-0.01,32.83
16663193,1872,1,203897,229038,0.62,-0.87,9.96,-0.03,-0.01,-0.00,32.83
16703193,1889,1,203732,229042,0.60,-0.88,9.97,-0.03,-0.01,-0.00,32.83
16743190,1915,1,203894,229945,0.61,-0.87,9.96,-0.03,-0.01,-0.01,32.83
16783193,1883,1,204198,230756,0.59,-0.85,9.97,-0.04,-0.01,-0.00,32.83
16823193,1954,1,204339,231006,0.60,-0.86,9.97,-0.03,-0.01,-0.00,32.83
16863193,1983,1,204227,230513,0.62,-0.85,9.97,-0.03,-0.01,-0.00,32.83
16903190,2003,1,204213,230411,0.61,-0.86,9.97,-0.03,-0.01,-0.00,32.83
16943192,2032,1,204300,231287,0.63,-0.85,9.95,-0.04,-0.01,-0.01,32.83
16983193,2005,1,204677,232234,0.62,-0.85,9.95,-0.04,-0.01,-0.00,32.83
17023203,2097,1,204884,232709,0.62,-0.85,9.97,-0.04,-0.01,-0.01,32.83
17063193,2009,1,204778,231268,0.61,-0.85,9.97,-0.03,-0.01,-0.00,32.83
17103193,2062,1,204129,229012,0.61,-0.83,9.95,-0.03,-0.01,-0.00,32.83
17143190,2054,1,203621,228427,0.61,-0.87,9.95,-0.03,-0.01,-0.00,32.83
17183193,2043,1,203667,228934,0.64,-0.84,9.98,-0.03,-0.01,-0.00,32.83
17223193,2033,1,203879,229359,0.61,-0.87,9.96,-0.04,-0.01,-0.00,32.83
17263199,2055,1,203879,229663,0.61,-0.84,9.96,-0.03,-0.01,-0.00,32.83
17303190,2071,1,203989,229723,0.62,-0.86,9.98,-0.03,-0.01,-0.00,32.83
17343879,2014,1,204038,230226,0.61,-0.85,9.94,-0.03,-0.01,-0.01,32.77
17382192,2064,1,204184,230899,0.64,-0.86,9.98,-0.03,-0.01,-0.00,32.77
17422192,2064,1,204467,231269,0.61,-0.84,9.95,-0.03,-0.01,-0.00,32.77
17462213,2058,1,204574,231563,0.63,-0.85,9.93,-0.04,-0.01,-0.00,32.77
17502192,2063,1,204624,231195,0.60,-0.85,9.94,-0.03,-0.01,-0.00,32.77
17542189,2039,1,204535,231249,0.61,-0.85,9.93,-0.03,-0.01,-0.00,32.77
17582192,2073,1,204645,231860,0.62,-0.88,10.00,-0.03,-0.01,-0.01,32.77
17622189,2018,1,204949,232432,0.62,-0.85,9.97,-0.03,-0.01,-0.00,32.77
17662192,2001,1,204993,232677,0.58,-0.85,9.97,-0.03,-0.01,-0.00,32.77
17702192,1989,1,205079,232673,0.60,-0.85,9.97,-0.03,-0.01,-0.00,32.77
17742192,1958,1,205131,232664,0.60,-0.85,9.93,-0.03,-0.01,-0.00,32.77
17782189,1997,1,205215,233176,0.61,-0.85,9.92,-0.03,-0.01,-0.01,32.77
17822192,1988,1,205333,233248,0.61,-0.84,9.97,-0.03,-0.01,-0.00,32.77
17862192,1977,1,205131,231577,0.59,-0.86,9.97,-0.04,-0.01,-0.00,32.77
17902193,1977,1,204460,230035,0.59,-0.87,9.97,-0.03,-0.01,-0.00,32.77
17942189,1986,1,204219,229394,0.59,-0.85,9.93,-0.03,-0.01,-0.00,32.77
17982192,2006,1,204147,229572,0.62,-0.88,9.96,-0.03,-0.01,-0.00,32.77
18022189,2003,1,204336,230332,0.63,-0.88,9.94,-0.04,-0.01,-0.01,32.77
18062192,2014,1,204611,231291,0.63,-0.88,9.96,-0.04,-0.01,-0.01,32.77
18102192,2026,1,204844,231693,0.60,-0.86,9.96,-0.03,-0.01,-0.01,32.77
18142193,2022,1,204888,231587,0.62,-0.86,9.97,-0.03,-0.01,-0.00,32.77
18182192,1997,1,204843,231646,0.63,-0.85,9.95,-0.03,-0.01,-0.00,32.77
18222193,1989,1,204950,232183,0.63,-0.86,9.97,-0.03,-0.01,-0.01,32.77
18262192,1996,1,205091,232924,0.62,-0.84,9.95,-0.03,-0.01,-0.00,32.77
18302193,2005,1,205340,233437,0.61,-0.86,9.97,-0.03,-0.01,-0.01,32.77
18342192,1997,1,205457,233475,0.62,-0.88,9.96,-0.03,-0.01,-0.00,32.77
18382879,1990,1,205437,233608,0.60,-0.87,9.94,-0.03,-0.01,-0.00,32.91
18423190,2000,1,205527,233960,0.62,-0.85,9.94,-0.03,-0.01,-0.00,32.91
18463193,2000,1,205688,234516,0.61,-0.85,9.95,-0.04,-0.01,-0.00,32.91
18502190,2000,1,205906,235047,0.60,-0.84,9.93,-0.03,-0.01,-0.00,32.91
18542192,2026,1,205977,235207,0.61,-0.86,9.95,-0.03,-0.01,-0.00,32.91
18582189,2015,1,205856,234022,0.61,-0.85,9.94,-0.03,-0.01,-0.00,32.91
18622192,2018,1,205364,231885,0.61,-0.84,9.95,-0.03,-0.01,-0.00,32.91
18662192,2000,1,204864,231079,0.61,-0.86,9.95,-0.03,-0.01,-0.00,32.91
18702193,2031,1,204774,231302,0.62,-0.86,9.96,-0.03,-0.01,-0.00,32.91
18742190,2003,1,204859,231443,0.62,-0.85,9.95,-0.03,-0.01,-0.00,32.91
18782192,1994,1,204886,231477,0.62,-0.87,9.92,-0.03,-0.01,-0.00,32.91
18822192,1995,1,204930,231389,0.60,-0.85,9.96,-0.03,-0.01,-0.00,32.91
18862192,1965,1,204849,231297,0.63,-0.86,9.95,-0.03,-0.01,-0.00,32.91
18902192,1977,1,204988,231740,0.62,-0.87,9.95,-0.04,-0.01,-0.00,32.91
18942192,1969,1,205095,231950,0.62,-0.85,9.96,-0.03,-0.01,-0.00,32.91
18982189,1954,1,205138,231943,0.60,-0.85,9.95,-0.03,-0.01,-0.00,32.91
19022193,1918,1,205056,231827,0.62,-0.88,9.97,-0.03,-0.01,-0.00,32.91
19062193,1955,1,205010,231950,0.60,-0.86,9.93,-0.03,-0.01,-0.01,32.91
19102198,1953,1,205115,232440,0.65,-0.85,9.95,-0.03,-0.01,-0.01,32.91
19142192,1956,1,205288,232936,0.60,-0.85,9.95,-0.04,-0.01,-0.00,32.91
19182193,1974,1,205366,232990,0.61,-0.85,9.96,-0.03,-0.01,-0.00,32.91
19222193,1983,1,205300,232820,0.62,-0.86,9.93,-0.03,-0.01,-0.00,32.91
19262193,2001,1,205270,232287,0.61,-0.85,9.99,-0.03,-0.01,-0.00,32.91
19302190,1985,1,204914,230559,0.61,-0.85,9.97,-0.03,-0.01,-0.00,32.91
19342193,1968,1,204371,229299,0.63,-0.85,9.97,-0.03,-0.01,-0.00,32.91
19382876,2017,1,204083,228802,0.61,-0.85,9.96,-0.03,-0.01,-0.00,32.89
19421192,2112,1,203944,228620,0.61,-0.85,9.95,-0.03,-0.01,-0.00,32.89
19461192,2142,1,203944,228925,0.62,-0.86,9.95,-0.03,-0.01,-0.00,32.89
19501192,2123,1,204154,229856,0.63,-0.87,9.97,-0.03,-0.01,-0.00,32.89
19542193,2096,1,204425,230592,0.62,-0.85,9.95,-0.03,-0.01,-0.00,32.89
19582193,2005,1,204534,230689,0.61,-0.86,10.00,-0.03,-0.01,-0.00,32.89
19622190,2032,1,204511,230490,0.61,-0.88,9.97,-0.03,-0.01,-0.00,32.89
19662193,2023,1,204503,230611,0.62,-0.88,9.97,-0.03,-0.01,-0.00,32.89
19702190,2015,1,204581,231104,0.62,-0.86,9.96,-0.03,-0.01,-0.00,32.89
19742193,2000,1,204763,231591,0.61,-0.85,9.97,-0.03,-0.01,-0.00,32.89
19782193,1995,1,204919,231842,0.60,-0.87,9.95,-0.03,-0.01,-0.00,32.89
19822193,2017,1,204884,231470,0.63,-0.85,9.97,-0.03,-0.01,-0.00,32.89
19862190,1985,1,204756,231130,0.61,-0.86,9.98,-0.03,-0.01,-0.00,32.89
19902192,1957,1,204718,231403,0.64,-0.88,9.97,-0.03,-0.01,-0.00,32.89
19942190,1955,1,204919,231992,0.61,-0.86,9.96,-0.03,-0.01,-0.01,32.89
19982193,1953,1,205021,231608,0.61,-0.85,9.95,-0.03,-0.01,-0.00,32.89
20022193,1933,1,204508,228910,0.61,-0.85,9.96,-0.03,-0.01,-0.00,32.89
20062193,1957,1,203592,226400,0.59,-0.86,9.95,-0.03,-0.01,-0.00,32.89
20102193,1952,1,202968,225679,0.64,-0.88,9.96,-0.03,-0.01,-0.01,32.89
20142193,1943,1,203029,226360,0.61,-0.86,9.94,-0.03,-0.01,-0.00,32.89
20182193,1962,1,203346,227065,0.58,-0.86,9.97,-0.03,-0.01,-0.01,32.89
20222193,1941,1,203477,227296,0.62,-0.84,9.97,-0.03,-0.01,-0.00,32.89
20262193,1948,1,203486,226968,0.62,-0.86,9.96,-0.03,-0.01,-0.00,32.89
20302192,1937,1,203462,226942,0.63,-0.85,9.92,-0.03,-0.01,-0.00,32.89
20342192,1921,1,203582,227718,0.60,-0.86,9.99,-0.04,-0.01,-0.00,32.89
20382193,1940,1,203926,228574,0.62,-0.83,9.97,-0.03,-0.01,-0.00,32.89
20422876,1950,1,204100,228844,0.60,-0.87,9.93,-0.03,-0.01,-0.00,32.71
20461193,1920,1,204037,228595,0.59,-0.86,9.99,-0.03,-0.01,-0.00,32.71
20501190,1994,1,204027,228996,0.62,-0.86,9.95,-0.03,-0.01,-0.00,32.71
20542238,1881,1,204372,230345,0.62,-0.86,9.96,-0.04,-0.01,-0.01,32.71
20582193,1973,1,204789,231390,0.59,-0.85,9.96,-0.04,-0.01,-0.01,32.71
20622193,1969,1,204955,231796,0.60,-0.84,9.97,-0.03,-0.01,-0.00,32.71
20662190,1884,1,204955,231727,0.62,-0.85,9.99,-0.03,-0.01,-0.01,32.71
20702193,1814,1,204973,231381,0.61,-0.85,9.97,-0.03,-0.01,-0.00,32.71
20742206,1815,1,204730,229786,0.61,-0.86,9.94,-0.03,-0.01,-0.00,32.71
20782193,1825,1,204116,227679,0.64,-0.84,9.95,-0.03,-0.01,-0.00,32.71
20822190,1866,1,203555,226614,0.61,-0.85,9.96,-0.03,-0.01,-0.00,32.71
20862193,1870,1,203284,226135,0.62,-0.85,9.96,-0.03,-0.01,-0.00,32.71
20902193,1913,1,203227,226336,0.61,-0.85,9.96,-0.03,-0.01,-0.00,32.71
20942193,1946,1,203408,227380,0.62,-0.85,9.94,-0.03,-0.01,-0.00,32.71
20982190,1997,1,203772,228792,0.60,-0.85,9.94,-0.04,-0.01,-0.01,32.71
21022193,1982,1,204112,229534,0.61,-0.85,9.96,-0.03,-0.01,-0.00,32.71
21062193,2018,1,204269,229618,0.60,-0.86,9.95,-0.03,-0.01,-0.01,32.71
21102193,2038,1,204277,229652,0.62,-0.85,9.93,-0.03,-0.01,-0.00,32.71
21142193,2054,1,204328,230070,0.61,-0.85,9.95,-0.03,-0.01,-0.00,32.71
21182193,2064,1,204572,230829,0.63,-0.85,9.93,-0.04,-0.01,-0.00,32.71
21222193,2043,1,204824,231446,0.62,-0.86,9.93,-0.03,-0.01,-0.01,32.71
21262193,2081,1,204979,231588,0.60,-0.87,9.96,-0.03,-0.01,-0.01,32.71
21302193,2096,1,204964,231436,0.63,-0.85,9.99,-0.03,-0.01,-0.00,32.71
21342193,2096,1,205000,231745,0.61,-0.86,9.95,-0.03,-0.01,-0.00,32.71
21382193,2039,1,205197,232650,0.62,-0.87,9.95,-0.03,-0.01,-0.01,32.71
21422880,2042,1,205561,233542,0.62,-0.85,9.93,-0.04,-0.01,-0.01,32.53
21461192,2067,1,205751,233618,0.61,-0.85,9.96,-0.03,-0.01,-0.00,32.53
21501193,2071,1,205435,231663,0.61,-0.85,9.98,-0.03,-0.01,-0.00,32.53
21541189,2068,1,204770,229718,0.60,-0.87,9.98,-0.03,-0.01,-0.00,32.53
21581192,2058,1,204410,229253,0.62,-0.87,9.96,-0.03,-0.01,-0.00,32.53
21621190,2030,1,204450,229559,0.63,-0.87,9.97,-0.03,-0.01,-0.00,32.53
21661193,2034,1,204558,229899,0.61,-0.85,9.94,-0.03,-0.01,-0.00,32.53
21701192,2016,1,204684,230075,0.60,-0.86,9.94,-0.03,-0.01,-0.00,32.53
21741193,2038,1,204624,229767,0.60,-0.88,9.97,-0.03,-0.01,-0.00,32.53
21781190,1984,1,204567,229522,0.62,-0.85,9.98,-0.03,-0.01,-0.00,32.53
21821193,1979,1,204556,229830,0.62,-0.86,9.94,-0.03,-0.01,-0.00,32.53
21861193,1964,1,204673,230363,0.62,-0.85,9.94,-0.03,-0.01,-0.00,32.53
21901193,1989,1,204803,230797,0.61,-0.86,9.96,-0.03,-0.01,-0.00,32.53
21941190,1963,1,204873,230811,0.62,-0.85,9.94,-0.03,-0.01,-0.00,32.53
21981192,1968,1,204837,230745,0.61,-0.88,9.97,-0.03,-0.01,-0.00,32.53
22021199,1981,1,204882,230918,0.61,-0.86,9.97,-0.03,-0.01,-0.00,32.53
22061193,1986,1,204975,231436,0.62,-0.86,9.95,-0.03,-0.01,-0.00,32.53
22101193,1941,1,205031,231616,0.62,-0.85,9.94,-0.03,-0.01,-0.00,32.53
22141193,1951,1,205026,230942,0.58,-0.86,9.97,-0.03,-0.01,-0.00,32.53
22181197,1953,1,204499,228186,0.62,-0.87,9.95,-0.03,-0.01,-0.00,32.53
22221193,1947,1,203425,225365,0.62,-0.87,9.95,-0.03,-0.01,-0.00,32.53
22261193,1964,1,202814,224932,0.62,-0.86,9.94,-0.04,-0.01,-0.01,32.53
22301193,1971,1,202939,225467,0.61,-0.85,9.95,-0.04,-0.02,-0.00,32.53
22341193,1989,1,203017,225211,0.60,-0.86,9.96,-0.03,-0.01,-0.00,32.53
22381205,1973,1,202864,224822,0.61,-0.85,9.93,-0.03,-0.02,-0.00,32.53
22421189,1990,1,202817,225041,0.61,-0.86,9.94,-0.03,-0.02,-0.00,32.53
22461880,1974,1,202961,225931,0.64,-0.88,9.94,-0.03,-0.01,-0.00,32.21
22500189,2032,1,203297,227112,0.64,-0.85,9.95,-0.03,-0.01,-0.01,32.21
22540192,2032,1,203596,227752,0.61,-0.85,9.95,-0.03,-0.01,-0.00,32.21
22580192,2032,1,203720,227737,0.64,-0.88,9.96,-0.03,-0.01,-0.00,32.21
22620192,2019,1,203616,227572,0.60,-0.86,9.97,-0.04,-0.02,-0.00,32.21
22660189,2058,1,203656,227880,0.64,-0.87,9.92,-0.04,-0.01,-0.00,32.21
22700193,2046,1,203878,228866,0.61,-0.87,9.95,-0.04,-0.01,-0.01,32.21
22740192,2096,1,204174,229602,0.63,-0.88,9.93,-0.04,-0.01,-0.00,32.21
22780193,2064,1,204319,229705,0.63,-0.85,9.94,-0.03,-0.01,-0.01,32.21
22820192,2031,1,204304,229390,0.62,-0.86,9.96,-0.03,-0.01,-0.00,32.21
22860193,2071,1,204211,229359,0.61,-0.85,9.92,-0.04,-0.02,-0.00,32.21
22900192,2067,1,204207,228363,0.62,-0.88,9.95,-0.04,-0.02,-0.00,32.21
22940192,2071,1,203576,225858,0.61,-0.86,9.96,-0.04,-0.01,-0.01,32.21
22980193,2037,1,202923,224482,0.63,-0.85,9.97,-0.03,-0.01,-0.01,32.21
23020192,2061,1,202588,223249,0.63,-0.85,9.95,-0.03,-0.01,-0.00,32.21
23060189,2010,1,202257,222622,0.61,-0.85,9.94,-0.03,-0.01,-0.00,32.21
23100193,2036,1,202293,223558,0.63,-0.88,9.94,-0.03,-0.01,-0.01,32.21
23140192,2015,1,202703,225503,0.64,-0.85,9.94,-0.03,-0.01,-0.01,32.21
23180192,2015,1,203207,226403,0.63,-0.86,9.96,-0.03,-0.01,-0.00,32.21
23220190,1997,1,203295,226111,0.63,-0.85,9.95,-0.03,-0.01,-0.00,32.21
23260192,1984,1,203108,225359,0.66,-0.86,9.94,-0.03,-0.01,-0.00,32.21
23300190,1974,1,202963,225466,0.62,-0.87,9.93,-0.03,-0.01,-0.00,32.21
23340192,1967,1,203217,226479,0.62,-0.86,9.94,-0.03,-0.01,-0.01,32.21
23380193,1961,1,203467,227477,0.63,-0.85,9.97,-0.03,-0.01,-0.00,32.21
23420192,1937,1,203676,227830,0.59,-0.88,9.99,-0.03,-0.01,-0.00,32.21
23460192,1936,1,203666,227473,0.60,-0.88,9.94,-0.03,-0.01,-0.00,32.21
23500879,1857,1,203512,227377,0.61,-0.84,9.97,-0.03,-0.01,-0.00,31.33
23541193,1904,1,203706,228520,0.64,-0.85,9.96,-0.03,-0.01,-0.00,31.33
23581193,1900,1,204199,229987,0.62,-0.85,9.97,-0.03,-0.01,-0.00,31.33
23620189,1909,1,204546,230415,0.60,-0.85,9.99,-0.03,-0.01,-0.00,31.33
23660192,1932,1,204305,228284,0.60,-0.88,9.96,-0.03,-0.01,-0.00,31.33
23700189,1947,1,203292,224673,0.60,-0.85,9.96,-0.03,-0.01,-0.00,31.33
23740192,1952,1,202426,223027,0.64,-0.84,9.95,-0.03,-0.01,-0.00,31.33
23780189,1923,1,202287,223409,0.62,-0.86,9.96,-0.03,-0.01,-0.00,31.33
23820223,1939,1,202410,223653,0.62,-0.85,9.95,-0.03,-0.01,-0.00,31.33
23860190,1962,1,202328,223170,0.60,-0.85,9.95,-0.03,-0.01,-0.00,31.33
23900193,1949,1,202210,222645,0.61,-0.84,9.91,-0.03,-0.01,-0.00,31.33
23940193,1931,1,202185,222978,0.62,-0.86,9.96,-0.03,-0.01,-0.00,31.33
23980192,1943,1,202438,224261,0.62,-0.86,9.96,-0.03,-0.01,-0.00,31.33
24020218,1946,1,202852,225541,0.61,-0.85,9.96,-0.03,-0.01,-0.00,31.33
24060193,1934,1,203193,226108,0.61,-0.86,9.93,-0.03,-0.01,-0.00,31.33
24100192,1962,1,203241,225858,0.62,-0.86,9.97,-0.03,-0.01,-0.01,31.33
24140193,1966,1,203220,225887,0.60,-0.86,9.95,-0.03,-0.01,-0.00,31.33
24180190,1973,1,203433,226935,0.61,-0.86,9.93,-0.03,-0.01,-0.01,31.33
24220214,1983,1,203804,228197,0.62,-0.85,9.96,-0.04,-0.01,-0.01,31.33
24260192,1962,1,204156,228753,0.61,-0.85,9.97,-0.03,-0.01,-0.00,31.33
24300193,1968,1,204209,228561,0.61,-0.85,9.95,-0.03,-0.01,-0.00,31.33
24340193,1982,1,204079,228234,0.62,-0.85,9.94,-0.03,-0.01,-0.00,31.33
24380193,1975,1,204077,228588,0.62,-0.87,9.96,-0.03,-0.01,-0.00,31.33
24420190,1937,1,204273,228853,0.63,-0.85,9.93,-0.04,-0.01,-0.00,31.33
24460193,2000,1,204067,227561,0.64,-0.85,9.93,-0.04,-0.01,-0.01,31.33
24500879,1930,1,203659,226748,0.62,-0.85,9.97,-0.03,-0.01,-0.00,31.55
24539193,1978,1,203479,226183,0.60,-0.84,9.96,-0.03,-0.01,-0.00,31.55
24579190,1967,1,203344,226006,0.63,-0.85,9.95,-0.03,-0.01,-0.00,31.55
24619193,1995,1,203426,226758,0.65,-0.86,9.95,-0.04,-0.01,-0.00,31.55
24660193,1946,1,203735,228033,0.61,-0.87,9.95,-0.04,-0.01,-0.00,31.55
24700193,1914,1,204082,228618,0.61,-0.85,9.94,-0.04,-0.01,-0.00,31.55
24740193,1926,1,204154,228449,0.61,-0.86,9.97,-0.03,-0.01,-0.00,31.55
24780193,1923,1,204016,228009,0.61,-0.86,9.98,-0.03,-0.01,-0.00,31.55
24820193,1930,1,203919,228137,0.62,-0.89,9.94,-0.03,-0.01,-0.00,31.55
24860192,1921,1,204081,228850,0.61,-0.86,9.97,-0.04,-0.01,-0.00,31.55
24900190,1909,1,204282,229417,0.61,-0.85,9.99,-0.03,-0.01,-0.00,31.55
24940192,1927,1,204377,229457,0.58,-0.85,9.95,-0.03,-0.01,-0.00,31.55
24980192,1909,1,204310,229145,0.62,-0.85,9.95,-0.03,-0.01,-0.00,31.55
25020193,1936,1,204302,229321,0.62,-0.84,9.97,-0.03,-0.01,-0.00,31.55
25060192,1952,1,204470,230165,0.63,-0.87,9.97,-0.03,-0.01,-0.01,31.55
25100193,1923,1,204712,230899,0.62,-0.86,9.96,-0.03,-0.01,-0.00,31.55
25140190,1918,1,204834,230661,0.61,-0.86,9.95,-0.03,-0.01,-0.01,31.55
25180193,1926,1,204400,228183,0.62,-0.86,9.96,-0.03,-0.01,-0.00,31.55
25220192,1925,1,203473,225751,0.60,-0.85,9.96,-0.03,-0.01,-0.00,31.55
25260193,1950,1,203030,225607,0.63,-0.85,9.96,-0.03,-0.01,-0.00,31.55
25300193,1935,1,203422,227502,0.63,-0.87,9.96,-0.04,-0.01,-0.01,31.55
25340193,1925,1,204275,230731,0.63,-0.85,9.96,-0.04,-0.01,-0.01,31.55
25380192,1936,1,205349,234679,0.62,-0.86,9.98,-0.04,-0.01,-0.01,31.55
25420193,1911,1,206337,237653,0.62,-0.86,9.97,-0.04,-0.02,-0.00,31.55
25460193,1937,1,207145,239799,0.62,-0.86,9.95,-0.04,-0.02,-0.00,31.55
25500880,1931,1,207676,241268,0.64,-0.89,9.97,-0.04,-0.02,-0.01,31.75
25539193,1986,1,207843,242515,0.64,-0.86,9.95,-0.04,-0.01,-0.01,31.75
25579192,2002,1,207990,243254,0.61,-0.88,9.95,-0.04,-0.01,-0.01,31.75
25619192,1979,1,208195,244022,0.62,-0.89,9.95,-0.04,-0.02,-0.00,31.75
25659232,1985,1,208596,244726,0.63,-0.88,9.96,-0.04,-0.03,-0.01,31.75
25699192,1971,1,208796,245389,0.65,-0.89,9.91,-0.03,-0.02,-0.00,31.75
25739189,2014,1,208885,245698,0.65,-0.87,9.96,-0.03,-0.02,-0.01,31.75
25779192,1982,1,208956,245763,0.64,-0.86,9.93,-0.03,-0.01,-0.00,31.75
25819192,2000,1,209165,246189,0.63,-0.87,9.96,-0.03,-0.01,-0.00,31.75
25859216,1983,1,209561,246429,0.66,-0.90,9.92,-0.03,-0.02,-0.00,31.75
25899189,1942,1,209645,245325,0.66,-0.85,9.95,-0.04,-0.04,-0.01,31.75
25939192,1989,1,209277,244853,0.69,-0.87,9.94,-0.04,-0.03,-0.00,31.75
25979192,1970,1,209276,245081,0.67,-0.84,9.96,-0.04,-0.02,-0.00,31.75
26019189,1936,1,209329,245208,0.69,-0.86,9.95,-0.03,-0.01,-0.00,31.75
26059190,1985,1,209359,245316,0.67,-0.89,9.95,-0.03,-0.01,-0.00,31.75
26099192,1985,1,209485,245677,0.68,-0.85,9.95,-0.03,-0.01,-0.00,31.75
26139189,1980,1,209572,245996,0.67,-0.88,9.97,-0.03,-0.01,-0.00,31.75
26179189,1965,1,209587,246123,0.68,-0.88,9.96,-0.03,-0.01,-0.00,31.75
26219192,1983,1,209583,246090,0.67,-0.88,9.96,-0.03,-0.01,-0.00,31.75
26259189,1967,1,209688,246049,0.68,-0.88,9.96,-0.03,-0.01,-0.00,31.75
26299193,1936,1,209751,246095,0.67,-0.88,9.94,-0.03,-0.01,-0.00,31.75
26339188,1918,1,209791,246098,0.68,-0.89,9.93,-0.03,-0.01,-0.00,31.75
26379193,1964,1,209668,246042,0.67,-0.89,9.92,-0.03,-0.01,-0.00,31.75
26419189,1887,1,209473,245779,0.67,-0.87,9.95,-0.03,-0.00,-0.01,31.75
26459192,1910,1,209362,245612,0.68,-0.87,9.96,-0.03,-0.00,-0.00,31.75
26499188,1907,1,209411,245572,0.66,-0.88,9.96,-0.03,-0.01,-0.00,31.75
26539876,1906,1,209510,245680,0.68,-0.87,9.98,-0.03,-0.01,-0.00,31.85
26578189,1968,1,209551,245829,0.67,-0.87,9.97,-0.03,-0.01,-0.00,31.85
26618191,1934,1,209421,244532,0.65,-0.88,9.96,-0.03,-0.01,-0.00,31.85
26658189,1951,1,208471,241375,0.67,-0.89,9.97,-0.03,-0.01,-0.00,31.85
26698192,1962,1,207816,240144,0.68,-0.89,9.95,-0.03,-0.01,-0.00,31.85
26738189,1982,1,207694,239911,0.67,-0.89,9.95,-0.03,-0.01,-0.00,31.85
26778192,1939,1,207775,239956,0.68,-0.86,9.92,-0.03,-0.01,-0.01,31.85
26818192,1953,1,207688,240355,0.69,-0.87,9.94,-0.03,-0.01,-0.01,31.85
26858191,1975,1,207789,241211,0.65,-0.86,9.96,-0.04,-0.01,-0.00,31.85
26898192,1943,1,207814,241513,0.65,-0.87,9.98,-0.03,-0.01,-0.01,31.85
26938192,1949,1,207924,241478,0.66,-0.87,9.96,-0.03,-0.01,-0.00,31.85
26978189,1941,1,207994,241122,0.66,-0.86,9.96,-0.03,-0.01,-0.00,31.85
27018192,1954,1,208021,240983,0.67,-0.90,9.95,-0.04,-0.01,-0.00,31.85
27058189,1968,1,208039,241205,0.65,-0.88,9.95,-0.03,-0.01,-0.00,31.85
27098192,1967,1,208100,241349,0.67,-0.88,9.92,-0.03,-0.01,-0.00,31.85
27138189,1949,1,208153,241254,0.65,-0.87,9.94,-0.03,-0.01,-0.00,31.85
27178192,1961,1,208182,241391,0.67,-0.90,9.94,-0.03,-0.01,-0.00,31.85
27218188,1963,1,208218,241824,0.67,-0.86,9.96,-0.03,-0.01,-0.00,31.85
27258192,1952,1,208229,242328,0.67,-0.87,9.96,-0.03,-0.01,-0.01,31.85
27298194,1941,1,208181,242549,0.68,-0.87,9.96,-0.03,-0.01,-0.01,31.85
27338192,1946,1,208210,242504,0.67,-0.88,9.97,-0.03,-0.01,-0.00,31.85
27378189,1945,1,208214,240896,0.68,-0.86,9.95,-0.03,-0.01,-0.00,31.85
27418192,1959,1,207421,238396,0.66,-0.89,9.95,-0.03,-0.01,-0.00,31.85
27458189,1959,1,206828,237317,0.67,-0.87,9.95,-0.03,-0.01,-0.00,31.85
27498192,1939,1,206509,236792,0.67,-0.88,9.96,-0.03,-0.01,-0.00,31.85
27538189,1936,1,206334,236503,0.64,-0.87,9.95,-0.03,-0.01,-0.01,31.85
27578879,1844,1,206226,236256,0.66,-0.86,9.95,-0.03,-0.01,-0.00,31.89
27619188,1932,1,206241,236505,0.66,-0.84,9.96,-0.04,-0.01,-0.01,31.89
27659190,1922,1,206207,236684,0.66,-0.86,9.95,-0.03,-0.01,-0.01,31.89
27699192,1909,1,206123,236750,0.65,-0.86,9.96,-0.03,-0.01,-0.00,31.89
27739189,1939,1,206125,236775,0.64,-0.85,9.97,-0.03,-0.01,-0.00,31.89
27779188,1934,1,206144,236847,0.63,-0.87,9.95,-0.03,-0.01,-0.00,31.89
27819189,1942,1,206231,237052,0.64,-0.89,9.93,-0.03,-0.01,-0.00,31.89
27859188,1925,1,206364,237249,0.65,-0.89,9.96,-0.03,-0.01,-0.00,31.89
27899192,1912,1,206324,237361,0.68,-0.86,9.97,-0.03,-0.01,-0.00,31.89
27939193,1887,1,206327,237471,0.65,-0.87,9.94,-0.03,-0.01,-0.00,31.89
27979193,1890,1,206278,237397,0.65,-0.87,9.98,-0.03,-0.01,-0.00,31.89
28019193,1928,1,206273,237470,0.65,-0.87,9.94,-0.03,-0.01,-0.00,31.89
28059192,1883,1,206356,237809,0.64,-0.87,9.96,-0.03,-0.01,-0.00,31.89
28099190,1889,1,206450,237941,0.64,-0.88,9.94,-0.03,-0.01,-0.00,31.89
28139193,1870,1,206191,236544,0.67,-0.85,9.92,-0.03,-0.01,-0.00,31.89
28179193,1904,1,205639,235372,0.65,-0.85,9.95,-0.03,-0.01,-0.00,31.89
28219193,1932,1,205442,234760,0.64,-0.88,9.96,-0.03,-0.01,-0.00,31.89
28259190,1941,1,205418,234474,0.67,-0.85,9.95,-0.03,-0.01,-0.00,31.89
28299193,1961,1,205372,234500,0.68,-0.85,9.92,-0.03,-0.01,-0.00,31.89
28339193,1938,1,205396,234965,0.66,-0.86,9.95,-0.04,-0.01,-0.00,31.89
28379193,1968,1,205576,235348,0.64,-0.86,9.97,-0.03,-0.01,-0.00,31.89
28419190,2013,1,205661,235507,0.66,-0.87,9.98,-0.03,-0.01,-0.00,31.89
28459193,1981,1,205741,235594,0.66,-0.87,9.97,-0.03,-0.01,-0.00,31.89
28499193,1999,1,205888,235847,0.67,-0.85,9.95,-0.03,-0.01,-0.00,31.89
28539193,1999,1,206010,236150,0.67,-0.85,9.93,-0.03,-0.01,-0.00,31.89
28577879,1960,1,206077,236432,0.67,-0.87,9.96,-0.03,-0.01,-0.00,31.91
28618192,1995,1,206126,236646,0.66,-0.86,9.97,-0.03,-0.01,-0.00,31.91
28658193,1982,1,206223,236818,0.66,-0.86,9.97,-0.03,-0.01,-0.00,31.91
28698193,1990,1,206395,237048,0.64,-0.85,9.92,-0.03,-0.01,-0.00,31.91
28738192,1994,1,206474,237437,0.67,-0.86,9.97,-0.03,-0.01,-0.00,31.91
28778193,1982,1,206547,237687,0.66,-0.87,9.98,-0.04,-0.01,-0.00,31.91
28818192,1981,1,206555,236971,0.63,-0.86,9.96,-0.03,-0.01,-0.00,31.91
28858193,1975,1,205988,235073,0.65,-0.86,9.97,-0.03,-0.01,-0.00,31.91
28898193,1973,1,205475,233985,0.64,-0.88,9.96,-0.03,-0.01,-0.00,31.91
28938231,1983,1,205262,233419,0.66,-0.88,9.97,-0.03,-0.01,-0.00,31.91
28978190,1975,1,205123,233370,0.65,-0.86,9.95,-0.03,-0.01,-0.01,31.91
29018192,1962,1,205110,233564,0.64,-0.86,9.96,-0.03,-0.01,-0.00,31.91
29058193,1941,1,205241,233929,0.67,-0.87,9.98,-0.03,-0.01,-0.00,31.91
29098192,2002,1,205460,234289,0.65,-0.89,9.92,-0.03,-0.01,-0.00,31.91
29138224,1968,1,205560,234608,0.66,-0.86,9.95,-0.03,-0.01,-0.00,31.91
29178192,1969,1,205592,234935,0.66,-0.86,9.95,-0.03,-0.01,-0.00,31.91
29218192,2003,1,205700,235308,0.66,-0.87,9.95,-0.04,-0.01,-0.00,31.91
29258193,1963,1,205748,235544,0.64,-0.87,9.93,-0.03,-0.01,-0.00,31.91
29298193,2001,1,205878,235768,0.65,-0.86,9.95,-0.03,-0.01,-0.00,31.91
29338192,1957,1,206043,236147,0.66,-0.85,9.94,-0.03,-0.01,-0.00,31.91
29378192,1973,1,206104,236668,0.64,-0.89,9.96,-0.03,-0.01,-0.00,31.91
29418193,1980,1,206212,237083,0.64,-0.85,9.96,-0.04,-0.01,-0.01,31.91
29458193,1953,1,206318,237383,0.64,-0.86,9.96,-0.03,-0.01,-0.00,31.91
29498193,1953,1,206370,237492,0.65,-0.88,9.97,-0.03,-0.01,-0.00,31.91
29538193,1953,1,206459,237496,0.66,-0.87,9.94,-0.03,-0.01,-0.00,31.91
29578192,1959,1,206279,236227,0.68,-0.88,9.95,-0.03,-0.01,-0.00,31.91
29618879,1942,1,205574,234825,0.65,-0.86,9.95,-0.03,-0.01,-0.00,31.69
29657192,1980,1,205273,234188,0.63,-0.87,9.95,-0.03,-0.01,-0.00,31.69
29697192,2009,1,205166,233731,0.64,-0.87,9.96,-0.03,-0.01,-0.00,31.69
29737192,1967,1,205144,233547,0.66,-0.88,9.95,-0.03,-0.01,-0.00,31.69
29777192,1951,1,205093,233663,0.66,-0.87,9.93,-0.03,-0.01,-0.00,31.69
29817192,1946,1,205183,234113,0.65,-0.87,9.94,-0.03,-0.01,-0.00,31.69
29857189,1952,1,205245,234399,0.66,-0.87,9.96,-0.03,-0.01,-0.01,31.69
29897192,1968,1,205302,234525,0.64,-0.87,9.96,-0.03,-0.01,-0.00,31.69
29937192,1937,1,205373,234637,0.66,-0.86,9.95,-0.03,-0.01,-0.00,31.69
29977192,1942,1,205521,234810,0.67,-0.87,9.98,-0.03,-0.01,-0.00,31.69
30017189,1942,1,205588,235189,0.66,-0.85,9.95,-0.03,-0.01,-0.01,31.69
30057192,1884,1,205640,235525,0.63,-0.84,9.94,-0.04,-0.01,-0.01,31.69
30097192,1949,1,205756,235799,0.62,-0.86,9.96,-0.03,-0.01,-0.00,31.69
30137193,1906,1,205855,235976,0.68,-0.86,9.96,-0.03,-0.01,-0.00,31.69
30177192,1961,1,205991,236207,0.62,-0.87,9.97,-0.03,-0.01,-0.00,31.69
30217193,1951,1,206054,236623,0.67,-0.87,9.95,-0.03,-0.01,-0.00,31.69
30257192,1951,1,206136,237097,0.66,-0.85,9.97,-0.03,-0.01,-0.01,31.69
30297193,1941,1,206171,236769,0.65,-0.87,9.95,-0.04,-0.01,-0.00,31.69
30337193,1969,1,205608,234974,0.62,-0.85,9.95,-0.03,-0.01,-0.00,31.69
30377192,1927,1,205186,233955,0.66,-0.84,9.94,-0.03,-0.01,-0.00,31.69
30417192,1947,1,205023,233525,0.65,-0.87,9.96,-0.03,-0.01,-0.00,31.69
30457193,1933,1,204948,233383,0.66,-0.88,9.95,-0.03,-0.01,-0.00,31.69
30497189,1929,1,204892,233407,0.67,-0.86,9.96,-0.03,-0.01,-0.00,31.69
30537192,1932,1,204871,233662,0.65,-0.89,9.95,-0.03,-0.01,-0.00,31.69
30577230,1962,1,204955,233834,0.63,-0.88,9.99,-0.03,-0.01,-0.00,31.69
30617192,1945,1,205034,233912,0.66,-0.88,9.95,-0.03,-0.01,-0.00,31.69
30657876,1922,1,205118,234295,0.65,-0.85,9.94,-0.03,-0.01,-0.00,31.75
30698193,1929,1,205149,234756,0.65,-0.88,9.96,-0.04,-0.01,-0.01,31.75
30738192,1922,1,205239,235109,0.64,-0.85,9.93,-0.04,-0.01,-0.00,31.75
30778209,1932,1,205298,235222,0.66,-0.87,9.95,-0.03,-0.01,-0.00,31.75
30818193,1905,1,205365,235331,0.66,-0.86,9.93,-0.03,-0.01,-0.00,31.75
30858193,1939,1,205417,235587,0.67,-0.86,9.94,-0.03,-0.01,-0.00,31.75
30898193,1907,1,205562,235951,0.66,-0.85,9.97,-0.03,-0.01,-0.01,31.75
30938193,1946,1,205536,236311,0.67,-0.87,9.95,-0.04,-0.01,-0.00,31.75
30978217,1943,1,205578,236462,0.64,-0.88,9.96,-0.04,-0.01,-0.00,31.75
31018193,1948,1,205602,235950,0.65,-0.88,9.94,-0.03,-0.01,-0.00,31.75
31058193,1968,1,205212,234405,0.65,-0.87,9.95,-0.03,-0.01,-0.00,31.75
31098193,1935,1,204744,233253,0.66,-0.85,9.96,-0.03,-0.01,-0.01,31.75
31136192,2002,1,204431,232617,0.65,-0.86,9.93,-0.03,-0.01,-0.00,31.75
31176192,1986,1,204183,232311,0.64,-0.86,9.95,-0.03,-0.01,-0.00,31.75
31216193,2005,1,204145,232294,0.65,-0.87,9.97,-0.03,-0.01,-0.00,31.75
31256193,1991,1,204285,232644,0.64,-0.87,9.92,-0.03,-0.01,-0.00,31.75
31296193,1975,1,204439,233022,0.67,-0.87,9.95,-0.03,-0.01,-0.00,31.75
31336193,1993,1,204528,233286,0.66,-0.86,9.96,-0.03,-0.01,-0.00,31.75
31376192,1983,1,204619,233582,0.64,-0.86,9.96,-0.03,-0.01,-0.00,31.75
31416193,1979,1,204735,233763,0.66,-0.87,9.94,-0.03,-0.01,-0.00,31.75
31456192,1984,1,204801,234006,0.65,-0.86,9.93,-0.03,-0.01,-0.00,31.75
31496193,1983,1,204900,234291,0.64,-0.87,9.94,-0.03,-0.01,-0.00,31.75
31536192,1982,1,204894,234590,0.65,-0.87,9.95,-0.03,-0.01,-0.00,31.75
31576192,2000,1,204949,234856,0.65,-0.86,9.96,-0.03,-0.01,-0.00,31.75
31616193,1987,1,205019,235021,0.63,-0.85,9.96,-0.03,-0.01,-0.00,31.75
31656193,1979,1,205124,235218,0.65,-0.87,9.96,-0.03,-0.01,-0.00,31.75
31696879,1923,1,205122,234878,0.65,-0.86,9.94,-0.03,-0.01,-0.00,31.69
31737193,1910,1,204746,233577,0.65,-0.87,9.97,-0.04,-0.01,-0.00,31.69
31777192,1938,1,204306,232664,0.62,-0.88,9.95,-0.03,-0.01,-0.00,31.69
31817192,1952,1,204219,232105,0.65,-0.88,9.97,-0.03,-0.01,-0.00,31.69
31857192,1931,1,204124,231992,0.66,-0.86,9.96,-0.03,-0.01,-0.00,31.69
31897193,1936,1,204163,232229,0.67,-0.89,9.96,-0.03,-0.01,-0.00,31.69
31937192,1904,1,204241,232902,0.67,-0.87,9.94,-0.04,-0.01,-0.01,31.69
31977193,1923,1,204360,233372,0.66,-0.87,9.99,-0.03,-0.01,-0.00,31.69
32017190,1934,1,204430,233559,0.64,-0.87,9.95,-0.03,-0.01,-0.00,31.69
32057192,1927,1,204562,233702,0.66,-0.87,9.94,-0.03,-0.01,-0.00,31.69
32097192,1915,1,204668,233878,0.67,-0.88,9.94,-0.03,-0.01,-0.01,31.69
32137193,1930,1,204701,234262,0.65,-0.86,9.97,-0.03,-0.01,-0.00,31.69
32177190,1922,1,204738,234571,0.62,-0.86,9.96,-0.03,-0.01,-0.00,31.69
32217198,1951,1,204895,234800,0.67,-0.86,9.95,-0.03,-0.01,-0.00,31.69
32257193,1935,1,204976,235104,0.65,-0.87,9.99,-0.03,-0.01,-0.00,31.69
32297192,1953,1,205118,235403,0.63,-0.88,9.94,-0.03,-0.01,-0.01,31.69
32337192,1953,1,205269,235865,0.66,-0.86,9.96,-0.03,-0.01,-0.01,31.69
32377193,1923,1,205329,235775,0.64,-0.87,9.96,-0.04,-0.01,-0.00,31.69
32417215,1918,1,205080,234451,0.66,-0.87,9.95,-0.03,-0.01,-0.00,31.69
32457193,1931,1,204653,233221,0.65,-0.87,9.95,-0.03,-0.01,-0.00,31.69
32497190,1938,1,204453,232552,0.65,-0.87,9.97,-0.03,-0.01,-0.00,31.69
32537192,1925,1,204325,232597,0.66,-0.87,9.94,-0.03,-0.01,-0.00,31.69
32577192,1936,1,204351,232945,0.64,-0.86,9.97,-0.03,-0.01,-0.00,31.69
32617217,1936,1,204466,233375,0.65,-0.86,9.97,-0.03,-0.01,-0.00,31.69
32657192,1914,1,204692,233736,0.65,-0.85,9.96,-0.03,-0.01,-0.00,31.69
32697879,1936,1,204798,233924,0.64,-0.87,9.94,-0.03,-0.01,-0.00,31.75
32736189,1935,1,204812,234045,0.66,-0.86,9.95,-0.03,-0.01,-0.00,31.75
32776192,1963,1,204842,234292,0.67,-0.86,9.95,-0.03,-0.01,-0.01,31.75
32816192,1982,1,204882,234529,0.65,-0.89,9.96,-0.03,-0.01,-0.00,31.75
32856192,1963,1,204953,234763,0.65,-0.86,9.97,-0.03,-0.01,-0.00,31.75
32896190,1969,1,205064,235079,0.63,-0.86,9.95,-0.03,-0.01,-0.01,31.75
32936193,1974,1,205198,235404,0.65,-0.85,9.96,-0.03,-0.01,-0.01,31.75
32976193,1955,1,205233,235627,0.67,-0.88,9.96,-0.03,-0.01,-0.00,31.75
33016193,1969,1,205305,235929,0.67,-0.85,9.96,-0.03,-0.01,-0.00,31.75
33056189,1941,1,205348,236034,0.65,-0.88,9.97,-0.03,-0.01,-0.00,31.75
33096192,1951,1,205389,235958,0.66,-0.86,9.95,-0.03,-0.01,-0.01,31.75
33136193,1930,1,205100,234801,0.65,-0.85,9.94,-0.03,-0.01,-0.00,31.75
33176192,1937,1,204730,233718,0.63,-0.87,9.95,-0.03,-0.01,-0.00,31.75
33216192,1944,1,204476,233031,0.64,-0.88,9.95,-0.03,-0.01,-0.00,31.75
33256193,1949,1,204357,232745,0.67,-0.85,9.96,-0.03,-0.01,-0.00,31.75
33296190,1963,1,204297,232699,0.66,-0.86,9.93,-0.03,-0.01,-0.00,31.75
33336193,1939,1,204360,233063,0.64,-0.87,9.96,-0.03,-0.01,-0.00,31.75
33376190,1938,1,204441,233578,0.64,-0.87,9.94,-0.03,-0.01,-0.01,31.75
33416193,1925,1,204515,233909,0.64,-0.87,9.96,-0.03,-0.01,-0.00,31.75
33456190,1936,1,204624,234079,0.64,-0.87,9.95,-0.03,-0.01,-0.00,31.75
33496192,1947,1,204725,234304,0.66,-0.89,9.96,-0.03,-0.01,-0.00,31.75
33536190,1955,1,204796,234514,0.64,-0.87,9.96,-0.03,-0.01,-0.00,31.75
33576192,1950,1,204896,234778,0.65,-0.87,9.94,-0.03,-0.01,-0.01,31.75
33616192,1970,1,204891,235100,0.65,-0.87,9.95,-0.04,-0.01,-0.01,31.75
33655193,1978,1,205020,235281,0.64,-0.86,9.94,-0.03,-0.01,-0.00,31.75
33695193,1979,1,205096,235518,0.65,-0.87,9.96,-0.03,-0.01,-0.00,31.75
33735880,1910,1,205205,235652,0.65,-0.87,9.94,-0.03,-0.01,-0.00,31.75
33776193,1921,1,205332,235906,0.66,-0.87,9.96,-0.03,-0.01,-0.00,31.75
33816193,1920,1,205366,236259,0.65,-0.86,9.98,-0.03,-0.01,-0.01,31.75
33856193,1973,1,205297,235793,0.64,-0.85,9.95,-0.04,-0.01,-0.00,31.75
33896192,1941,1,204974,234796,0.64,-0.87,9.96,-0.03,-0.01,-0.01,31.75
33936192,1937,1,204765,234124,0.63,-0.86,9.96,-0.03,-0.01,-0.00,31.75
33976193,1943,1,204707,233805,0.64,-0.87,9.96,-0.03,-0.01,-0.00,31.75
34016190,1899,1,204660,233775,0.66,-0.85,9.93,-0.03,-0.01,-0.00,31.75
34056216,1940,1,204664,234117,0.65,-0.87,9.97,-0.03,-0.01,-0.01,31.75
34096193,1952,1,204715,234718,0.66,-0.87,9.96,-0.04,-0.01,-0.01,31.75
34136193,1931,1,204781,235104,0.63,-0.88,9.93,-0.04,-0.01,-0.00,31.75
34176192,1938,1,204907,235325,0.62,-0.87,9.96,-0.03,-0.01,-0.00,31.75
34216193,1965,1,205026,235507,0.66,-0.88,9.95,-0.03,-0.01,-0.00,31.75
34256198,1930,1,205098,235708,0.64,-0.88,9.95,-0.03,-0.01,-0.00,31.75
34296193,1920,1,205092,235993,0.66,-0.84,9.96,-0.03,-0.01,-0.00,31.75
34336192,1936,1,205190,236253,0.64,-0.85,9.95,-0.03,-0.01,-0.01,31.75
34376193,1945,1,205296,236504,0.64,-0.89,9.95,-0.03,-0.01,-0.01,31.75
34416192,1966,1,205387,236752,0.62,-0.88,9.95,-0.03,-0.01,-0.01,31.75
34456193,1927,1,205494,236932,0.66,-0.87,9.94,-0.03,-0.01,-0.00,31.75
34496190,1942,1,205515,237143,0.66,-0.88,9.96,-0.03,-0.01,-0.00,31.75
34536193,1939,1,205453,237251,0.63,-0.86,9.93,-0.03,-0.01,-0.01,31.75
34576192,1955,1,205409,236739,0.63,-0.86,9.96,-0.03,-0.01,-0.00,31.75
34616193,1936,1,205148,235763,0.64,-0.87,9.96,-0.03,-0.01,-0.00,31.75
34656192,1922,1,205046,234996,0.64,-0.87,9.96,-0.03,-0.01,-0.00,31.75
34695193,1970,1,204874,234564,0.66,-0.87,9.94,-0.03,-0.01,-0.00,31.75
34735879,1948,1,204815,234701,0.65,-0.86,9.97,-0.03,-0.01,-0.00,31.63
34776193,1951,1,204855,235008,0.65,-0.85,9.94,-0.03,-0.01,-0.00,31.63
34816190,1970,1,204969,235262,0.66,-0.87,9.96,-0.03,-0.01,-0.00,31.63
34856192,1948,1,205091,235256,0.65,-0.85,9.95,-0.03,-0.01,-0.00,31.63
34896206,1943,1,205214,235289,0.65,-0.88,9.96,-0.03,-0.01,-0.00,31.63
34936193,1931,1,205212,235497,0.66,-0.87,9.94,-0.03,-0.01,-0.00,31.63
34976190,1929,1,205212,235785,0.65,-0.86,9.95,-0.03,-0.01,-0.00,31.63
35016193,1969,1,205235,236092,0.64,-0.86,9.92,-0.03,-0.01,-0.00,31.63
35056193,1910,1,205321,236235,0.65,-0.87,9.93,-0.03,-0.01,-0.01,31.63
35096193,1918,1,205389,236357,0.65,-0.88,9.94,-0.03,-0.01,-0.00,31.63
35136193,1933,1,205498,236462,0.67,-0.86,9.93,-0.03,-0.01,-0.00,31.63
35176193,1947,1,205489,236754,0.66,-0.86,9.96,-0.04,-0.01,-0.01,31.63
35216193,1926,1,205435,236979,0.64,-0.85,9.96,-0.04,-0.01,-0.00,31.63
35256193,1971,1,205440,236642,0.63,-0.88,9.93,-0.03,-0.01,-0.00,31.63
35296193,1935,1,205199,235589,0.63,-0.87,9.97,-0.03,-0.01,-0.00,31.63
35336193,1969,1,204930,234715,0.65,-0.87,9.94,-0.03,-0.01,-0.00,31.63
35376193,1931,1,204788,234590,0.65,-0.88,9.94,-0.03,-0.01,-0.00,31.63
35416193,1930,1,204734,234764,0.64,-0.87,9.97,-0.03,-0.01,-0.01,31.63
35456192,1957,1,204735,234909,0.64,-0.87,9.95,-0.03,-0.01,-0.01,31.63
35496192,1953,1,204837,235101,0.65,-0.88,9.97,-0.03,-0.01,-0.00,31.63
35536193,1946,1,204939,235189,0.65,-0.86,9.96,-0.03,-0.01,-0.00,31.63
35576194,1931,1,204889,235248,0.64,-0.87,9.94,-0.03,-0.01,-0.00,31.63
35616193,1939,1,204826,235457,0.65,-0.84,9.97,-0.03,-0.01,-0.01,31.63
35656193,1936,1,204883,235674,0.64,-0.86,9.96,-0.03,-0.01,-0.00,31.63
35695190,1937,1,205008,235855,0.63,-0.90,9.95,-0.03,-0.01,-0.00,31.63
35735193,1915,1,205138,235981,0.62,-0.88,9.94,-0.03,-0.01,-0.00,31.63
35775880,1891,1,205206,236236,0.65,-0.88,9.95,-0.03,-0.01,-0.00,31.61
35814192,1984,1,205254,236439,0.65,-0.88,9.97,-0.04,-0.01,-0.00,31.61
35854192,1984,1,205337,236718,0.65,-0.86,9.94,-0.03,-0.01,-0.00,31.61
35894213,1991,1,205470,236925,0.64,-0.87,9.96,-0.03,-0.01,-0.01,31.61
35934193,2016,1,205595,237111,0.66,-0.88,9.95,-0.03,-0.01,-0.00,31.61
35974193,2000,1,205681,237274,0.63,-0.87,9.95,-0.03,-0.01,-0.00,31.61
36014192,1999,1,205632,236780,0.66,-0.86,9.96,-0.03,-0.01,-0.01,31.61
36054194,1995,1,205227,235805,0.66,-0.85,9.96,-0.04,-0.01,-0.00,31.61
36094192,1999,1,204969,235174,0.66,-0.87,9.94,-0.03,-0.01,-0.00,31.61
36134193,2009,1,204881,234914,0.63,-0.86,9.95,-0.03,-0.01,-0.00,31.61
36174193,1999,1,204889,234798,0.65,-0.86,9.94,-0.03,-0.01,-0.00,31.61
36214193,1983,1,204864,234962,0.65,-0.87,9.95,-0.03,-0.01,-0.00,31.61
36254193,1995,1,204877,235487,0.65,-0.85,9.94,-0.03,-0.01,-0.00,31.61
36294193,1937,1,204930,235780,0.64,-0.86,9.98,-0.03,-0.01,-0.00,31.61
36334193,1930,1,204968,235915,0.66,-0.87,9.94,-0.03,-0.01,-0.00,31.61
36374193,1944,1,205050,235988,0.64,-0.89,9.94,-0.03,-0.01,-0.00,31.61
36414192,1945,1,205121,236111,0.64,-0.87,9.95,-0.03,-0.01,-0.00,31.61
36454193,1952,1,205161,236499,0.66,-0.88,9.96,-0.03,-0.01,-0.01,31.61
36494193,1951,1,205229,236828,0.64,-0.85,9.96,-0.03,-0.01,-0.00,31.61
36534194,1941,1,205325,237000,0.63,-0.87,9.95,-0.03,-0.01,-0.00,31.61
36574193,1951,1,205435,237165,0.64,-0.88,9.96,-0.03,-0.01,-0.00,31.61
36614193,1943,1,205513,237377,0.66,-0.88,9.96,-0.03,-0.01,-0.00,31.61
36654193,1936,1,205542,237561,0.66,-0.87,9.97,-0.03,-0.01,-0.00,31.61
36694193,1948,1,205590,237817,0.65,-0.85,9.95,-0.03,-0.01,-0.00,31.61
36735192,1936,1,205691,237979,0.65,-0.87,9.92,-0.03,-0.01,-0.01,31.61
36775192,1943,1,205795,238005,0.64,-0.88,9.97,-0.03,-0.01,-0.00,31.61
36815880,1936,1,205698,237260,0.65,-0.87,9.93,-0.03,-0.01,-0.00,31.69
36854193,1957,1,205323,236245,0.66,-0.86,9.96,-0.04,-0.01,-0.00,31.69
36894192,1955,1,205068,235674,0.65,-0.88,9.96,-0.03,-0.01,-0.00,31.69
36934193,1957,1,205046,235503,0.64,-0.87,9.96,-0.03,-0.01,-0.00,31.69
36974193,1949,1,205102,235433,0.65,-0.87,9.96,-0.03,-0.01,-0.00,31.69
37014193,1949,1,205156,235480,0.65,-0.86,9.95,-0.03,-0.01,-0.00,31.69
37054192,1945,1,205203,235789,0.66,-0.86,9.94,-0.03,-0.01,-0.00,31.69
37094193,1918,1,205245,236043,0.64,-0.85,9.97,-0.04,-0.01,-0.01,31.69
37134192,1954,1,205248,236222,0.64,-0.85,9.97,-0.03,-0.01,-0.00,31.69
37174194,1939,1,205320,236293,0.67,-0.89,9.94,-0.03,-0.01,-0.00,31.69
37214190,2000,1,205386,236303,0.65,-0.91,9.95,-0.03,-0.01,-0.00,31.69
37254193,1979,1,205467,236347,0.65,-0.87,9.96,-0.03,-0.01,-0.00,31.69
37294190,2028,1,205474,236396,0.62,-0.82,9.93,-0.03,-0.00,0.00,31.69
37334177,2070,1,205533,236386,0.67,-0.86,9.94,-0.02,-0.01,0.00,31.69
37374170,2133,1,205685,236332,0.62,-0.84,9.99,-0.01,-0.01,0.01,31.69
37414172,2257,1,205778,236333,0.68,-0.87,9.95,-0.01,-0.00,0.01,31.69
37454170,2445,1,205698,236552,0.66,-0.82,9.90,-0.03,0.01,-0.00,31.69
37494172,2832,1,205073,237238,0.59,-0.84,10.00,-0.05,0.03,-0.01,31.69
37534197,1456,1,204727,237503,0.60,-0.85,9.94,-0.05,0.02,-0.02,31.69
37574172,819,1,204361,237318,0.60,-0.83,10.00,-0.04,0.01,-0.02,31.69
37614170,673,1,203754,236047,0.61,-0.85,9.96,-0.04,-0.00,-0.01,31.69
37654193,657,1,203024,234684,0.60,-0.85,9.96,-0.03,-0.01,-0.01,31.69
37694189,790,1,202670,233687,0.58,-0.82,9.97,-0.03,-0.02,-0.00,31.69
37734193,945,1,202869,233264,0.60,-0.84,9.96,-0.03,-0.03,-0.00,31.69
37774189,1127,1,203132,233551,0.65,-0.84,9.95,-0.03,-0.02,-0.00,31.69
37814193,1419,1,203128,234144,0.62,-0.86,9.95,-0.03,-0.00,-0.01,31.69
37854879,1600,1,202998,234731,0.61,-0.85,9.98,-0.03,-0.01,-0.00,31.63
37895193,1798,1,203069,235243,0.58,-0.80,9.95,-0.03,-0.01,-0.00,31.63
37935190,1935,1,203198,235649,0.62,-0.82,9.95,-0.03,-0.02,-0.00,31.63
37973193,2165,1,203432,235992,0.59,-0.86,9.96,-0.03,-0.02,-0.00,31.63
38013192,2281,1,203733,236286,0.62,-0.84,9.96,-0.03,-0.01,-0.00,31.63
38053193,2397,1,204072,236488,0.62,-0.83,9.97,-0.03,-0.02,-0.00,31.63
38093190,2459,1,204397,236772,0.62,-0.84,9.96,-0.03,-0.02,-0.00,31.63
38133193,2480,1,204599,237049,0.63,-0.85,9.95,-0.03,-0.01,-0.00,31.63
38173193,2591,1,204753,237306,0.62,-0.84,9.96,-0.04,-0.01,-0.00,31.63
38213193,2614,1,204801,237472,0.60,-0.84,9.97,-0.04,-0.01,-0.00,31.63
38253190,2617,1,204772,237721,0.62,-0.84,9.93,-0.04,-0.01,-0.00,31.63
38293193,2624,1,204808,237980,0.62,-0.86,9.96,-0.04,-0.01,-0.00,31.63
38333193,2599,1,204800,237686,0.63,-0.85,9.99,-0.03,-0.01,-0.00,31.63
38373193,2588,1,204515,236474,0.60,-0.84,9.97,-0.03,-0.01,-0.00,31.63
38413190,2544,1,204318,235327,0.61,-0.85,9.97,-0.03,-0.01,-0.00,31.63
38453193,2541,1,204195,234612,0.62,-0.85,9.96,-0.03,-0.02,-0.00,31.63
38493190,2505,1,204151,234600,0.64,-0.84,9.95,-0.03,-0.01,-0.00,31.63
38533193,2467,1,204251,234748,0.62,-0.82,9.95,-0.03,-0.01,-0.00,31.63
38573190,2471,1,204374,235021,0.64,-0.84,9.94,-0.03,-0.02,-0.00,31.63
38613193,2411,1,204546,235385,0.63,-0.84,9.95,-0.03,-0.01,-0.00,31.63
38653190,2387,1,204567,236057,0.63,-0.83,9.93,-0.04,-0.00,-0.01,31.63
38693193,2355,1,204425,236624,0.62,-0.83,9.95,-0.05,0.00,-0.01,31.63
38733170,2314,1,204135,237028,0.60,-0.85,9.97,-0.04,-0.00,-0.01,31.63
38773193,2275,1,204091,237357,0.59,-0.85,9.97,-0.04,-0.01,-0.00,31.63
38813193,2249,1,204180,237527,0.62,-0.87,9.96,-0.03,-0.01,-0.00,31.63
38853193,2227,1,204295,237750,0.63,-0.84,9.97,-0.03,-0.01,-0.00,31.63
38893879,2135,1,204377,237864,0.60,-0.84,9.96,-0.03,-0.01,-0.00,31.67
38934193,2115,1,204513,238034,0.63,-0.85,9.96,-0.03,-0.01,-0.00,31.67
38974196,2110,1,204660,238181,0.62,-0.86,9.96,-0.03,-0.01,-0.00,31.67
39014193,2079,1,204835,238281,0.61,-0.85,9.96,-0.03,-0.01,-0.00,31.67
39054193,2055,1,204797,237396,0.61,-0.83,9.95,-0.03,-0.01,-0.00,31.67
39094193,2047,1,204387,236005,0.61,-0.86,9.95,-0.03,-0.01,-0.00,31.67
39134193,2046,1,204032,235072,0.62,-0.84,9.98,-0.03,-0.01,-0.00,31.67
39174200,2032,1,203861,234761,0.63,-0.84,9.96,-0.03,-0.01,-0.01,31.67
39214193,2008,1,203935,234615,0.61,-0.83,9.97,-0.03,-0.01,-0.00,31.67
39254193,2013,1,203966,234578,0.60,-0.83,9.94,-0.03,-0.01,-0.00,31.67
39294190,2003,1,204017,234889,0.62,-0.85,9.98,-0.03,-0.01,-0.00,31.67
39334193,2017,1,204102,235146,0.65,-0.85,9.96,-0.03,-0.01,-0.00,31.67
39374193,2007,1,204083,235375,0.62,-0.85,9.97,-0.04,-0.00,-0.00,31.67
39414193,2000,1,204143,235571,0.61,-0.84,9.96,-0.03,-0.01,-0.00,31.67
39454193,1993,1,204354,235676,0.61,-0.83,9.96,-0.03,-0.01,-0.00,31.67
39494193,1984,1,204504,235864,0.62,-0.85,9.95,-0.03,-0.01,-0.00,31.67
39534193,2007,1,204572,236128,0.62,-0.84,9.99,-0.03,-0.01,-0.00,31.67
39574193,2023,1,204614,236428,0.62,-0.83,9.96,-0.03,-0.01,-0.00,31.67
39614193,2031,1,204719,236693,0.62,-0.85,9.96,-0.03,-0.01,-0.00,31.67
39654193,2025,1,204922,236832,0.61,-0.84,9.93,-0.03,-0.01,-0.00,31.67
39694193,2000,1,205078,237021,0.64,-0.85,9.95,-0.03,-0.01,-0.00,31.67
39734193,2009,1,205093,237337,0.61,-0.85,9.98,-0.03,-0.01,-0.01,31.67
39774193,2029,1,205074,237091,0.62,-0.84,9.97,-0.03,-0.01,-0.01,31.67
39814193,2042,1,204822,235773,0.60,-0.83,9.95,-0.03,-0.01,-0.00,31.67
39854190,2030,1,204444,234609,0.62,-0.84,9.96,-0.03,-0.01,-0.00,31.67
39894879,1983,1,204355,234135,0.62,-0.83,9.96,-0.03,-0.01,-0.00,31.55
39933190,2033,1,204365,233995,0.62,-0.83,9.95,-0.03,-0.01,-0.00,31.55
39973193,2039,1,204275,234174,0.63,-0.82,9.97,-0.04,-0.01,-0.00,31.55
40013193,2037,1,204234,234727,0.61,-0.85,9.93,-0.03,-0.01,-0.00,31.55
40053193,2027,1,204417,235223,0.61,-0.84,9.97,-0.04,-0.01,-0.00,31.55
40093190,2042,1,204621,235558,0.60,-0.83,9.92,-0.03,-0.01,-0.00,31.55
40133193,2047,1,204858,235819,0.61,-0.85,9.94,-0.03,-0.01,-0.00,31.55
40173190,2044,1,205056,236084,0.62,-0.83,9.97,-0.03,-0.02,-0.00,31.55
40213193,2055,1,205231,236470,0.63,-0.85,9.96,-0.03,-0.01,-0.00,31.55
40253190,2061,1,205369,236941,0.62,-0.83,9.96,-0.03,-0.01,-0.00,31.55
40293193,2062,1,205499,237378,0.62,-0.84,9.95,-0.03,-0.01,-0.00,31.55
40333190,2045,1,205624,237842,0.62,-0.83,9.98,-0.04,-0.01,-0.01,31.55
40373193,2062,1,205825,238301,0.61,-0.83,9.98,-0.04,-0.01,-0.01,31.55
40413193,2059,1,205983,238666,0.62,-0.85,9.98,-0.03,-0.02,-0.00,31.55
40453193,2073,1,206171,239067,0.60,-0.84,9.95,-0.03,-0.01,-0.00,31.55
40493190,2064,1,206377,239516,0.62,-0.85,9.97,-0.03,-0.01,-0.00,31.55
40533193,2066,1,206543,239709,0.61,-0.84,9.97,-0.03,-0.01,-0.00,31.55
40573193,2074,1,206378,238834,0.64,-0.85,9.95,-0.04,-0.01,-0.00,31.55
40613206,2070,1,206088,238185,0.63,-0.85,9.95,-0.03,-0.01,-0.00,31.55
40653193,2062,1,206021,238049,0.62,-0.83,9.96,-0.03,-0.01,-0.00,31.55
40693193,2061,1,206070,238094,0.63,-0.85,9.96,-0.03,-0.01,-0.00,31.55
40733193,2062,1,206121,238292,0.64,-0.85,9.95,-0.03,-0.01,-0.00,31.55
40773193,2069,1,206198,238626,0.62,-0.86,9.96,-0.03,-0.01,-0.00,31.55
40813222,2069,1,206307,239109,0.65,-0.85,9.96,-0.03,-0.01,-0.00,31.55
40853193,2062,1,206381,239338,0.63,-0.86,9.93,-0.03,-0.01,-0.01,31.55
40893193,2054,1,206495,239496,0.64,-0.85,9.97,-0.03,-0.01,-0.00,31.55
40933879,2042,1,206564,239633,0.63,-0.86,9.94,-0.03,-0.01,-0.00,31.53
40972193,2132,1,206586,239821,0.64,-0.85,9.95,-0.03,-0.01,-0.00,31.53
41012193,2137,1,206634,240019,0.63,-0.84,9.94,-0.03,-0.01,-0.00,31.53
41052193,2125,1,206678,240132,0.63,-0.84,9.95,-0.03,-0.01,-0.00,31.53
41092193,2128,1,206749,240211,0.64,-0.84,9.94,-0.03,-0.01,-0.00,31.53
41132193,2129,1,206734,240350,0.62,-0.86,9.95,-0.03,-0.01,-0.00,31.53
41172193,2126,1,206811,240472,0.64,-0.85,9.96,-0.03,-0.01,-0.00,31.53
41212193,2125,1,206774,240680,0.63,-0.84,9.96,-0.03,-0.01,-0.00,31.53
41252193,2128,1,206769,240236,0.64,-0.84,9.95,-0.03,-0.01,-0.00,31.53
41292193,2128,1,206369,239369,0.64,-0.84,9.92,-0.03,-0.01,-0.00,31.53
41332193,2101,1,206173,238920,0.63,-0.84,9.95,-0.03,-0.01,-0.00,31.53
41372193,2101,1,206199,238962,0.62,-0.86,9.96,-0.03,-0.01,-0.00,31.53
41412193,2105,1,206262,239173,0.65,-0.85,9.95,-0.03,-0.01,-0.00,31.53
41452193,2094,1,206315,239679,0.63,-0.85,9.95,-0.04,-0.01,-0.01,31.53
41492193,2107,1,206522,240373,0.64,-0.84,9.96,-0.04,-0.01,-0.01,31.53
41532193,2113,1,206693,240852,0.61,-0.85,9.96,-0.04,-0.01,-0.00,31.53
41572193,2123,1,206862,241077,0.62,-0.85,9.97,-0.03,-0.01,-0.00,31.53
41612193,2115,1,206945,241212,0.64,-0.86,9.96,-0.03,-0.01,-0.00,31.53
41652193,2102,1,207042,241373,0.62,-0.85,9.94,-0.03,-0.01,-0.00,31.53
41692193,2101,1,207099,241484,0.63,-0.86,9.95,-0.03,-0.01,-0.00,31.53
41732193,2111,1,207129,241556,0.64,-0.85,9.95,-0.03,-0.01,-0.00,31.53
41772193,2115,1,207113,241578,0.62,-0.83,9.95,-0.03,-0.01,-0.00,31.53
41812193,2102,1,207151,241575,0.63,-0.84,9.97,-0.03,-0.01,-0.00,31.53
41852193,2115,1,207166,241643,0.65,-0.85,9.96,-0.03,-0.01,-0.00,31.53
41892193,2107,1,207176,241683,0.62,-0.83,9.94,-0.03,-0.01,-0.00,31.53
41932193,2103,1,207086,240964,0.64,-0.86,9.96,-0.03,-0.01,-0.00,31.53
41972879,2025,1,206817,239839,0.63,-0.86,9.93,-0.03,-0.01,-0.00,31.55
42013193,2032,1,206556,239123,0.64,-0.86,9.94,-0.03,-0.01,-0.00,31.55
42053193,2031,1,206462,238704,0.64,-0.85,9.97,-0.03,-0.01,-0.00,31.55
42093193,2032,1,206387,238408,0.65,-0.84,9.95,-0.03,-0.01,-0.00,31.55
42133193,2032,1,206258,238342,0.65,-0.83,9.95,-0.03,-0.01,-0.00,31.55
42173193,2029,1,206259,238554,0.63,-0.85,9.98,-0.03,-0.01,-0.00,31.55
42213193,2033,1,206263,238544,0.63,-0.85,9.96,-0.03,-0.01,-0.00,31.55
42253193,2042,1,206175,238533,0.67,-0.84,9.95,-0.03,-0.01,-0.00,31.55
42293193,2047,1,206123,238480,0.62,-0.84,9.96,-0.03,-0.01,-0.00,31.55
42333193,2037,1,206036,238611,0.63,-0.83,9.94,-0.03,-0.01,-0.01,31.55
42373193,2039,1,206064,238722,0.63,-0.85,9.94,-0.03,-0.01,-0.00,31.55
42413193,2058,1,206068,238837,0.61,-0.85,9.92,-0.03,-0.01,-0.00,31.55
42453199,2047,1,206182,239038,0.62,-0.83,9.96,-0.03,-0.01,-0.00,31.55
42493193,2042,1,206281,239229,0.60,-0.86,9.95,-0.03,-0.01,-0.00,31.55
42533193,2054,1,206469,239341,0.65,-0.85,9.96,-0.03,-0.01,-0.00,31.55
42573193,2032,1,206346,239093,0.64,-0.85,9.96,-0.03,-0.01,-0.00,31.55
42613193,2047,1,206017,237869,0.61,-0.85,9.97,-0.03,-0.01,-0.00,31.55
42653193,2023,1,205509,236517,0.62,-0.81,9.98,-0.03,-0.01,-0.00,31.55
42693193,2038,1,205114,235721,0.62,-0.84,9.95,-0.03,-0.01,-0.01,31.55
42733193,2033,1,204890,235410,0.62,-0.86,9.98,-0.03,-0.01,-0.00,31.55
42773193,2019,1,204784,235219,0.62,-0.84,9.96,-0.03,-0.01,-0.00,31.55
42813193,2039,1,204774,235332,0.62,-0.83,9.95,-0.03,-0.01,-0.00,31.55
42853193,2047,1,204779,235575,0.61,-0.85,9.95,-0.03,-0.01,-0.00,31.55
42893193,2042,1,204781,235710,0.61,-0.83,9.93,-0.03,-0.01,-0.00,31.55
42933193,2059,1,204805,235884,0.61,-0.84,9.96,-0.03,-0.01,-0.00,31.55
42973879,2047,1,204949,236170,0.62,-0.83,9.96,-0.03,-0.01,-0.00,31.63
43012193,2096,1,205033,236700,0.64,-0.83,9.96,-0.03,-0.01,-0.00,31.63
43052190,2093,1,205155,237148,0.64,-0.84,9.97,-0.03,-0.01,-0.00,31.63
43092193,2096,1,205299,237493,0.62,-0.85,9.95,-0.03,-0.01,-0.00,31.63
43132190,2111,1,205403,237880,0.61,-0.83,9.96,-0.03,-0.01,-0.00,31.63
43172193,2122,1,205503,238324,0.64,-0.83,9.96,-0.03,-0.01,-0.00,31.63
43212193,2131,1,205623,238754,0.63,-0.82,9.95,-0.03,-0.01,-0.01,31.63
43252193,2107,1,205607,238246,0.59,-0.83,9.96,-0.03,-0.01,-0.01,31.63
43292193,2160,1,205224,237353,0.62,-0.83,9.96,-0.04,0.01,-0.01,31.63
43332172,2128,1,204761,236624,0.62,-0.85,9.94,-0.04,-0.00,-0.01,31.63
43372190,2149,1,204294,236007,0.62,-0.87,9.96,-0.04,-0.00,-0.01,31.63
43412193,2110,1,203921,235598,0.60,-0.84,9.98,-0.04,-0.01,-0.01,31.63
43452190,2085,1,203733,235377,0.60,-0.84,9.94,-0.03,-0.01,-0.01,31.63
43492193,2115,1,203735,235372,0.62,-0.87,9.98,-0.04,-0.01,-0.01,31.63
43532193,2093,1,203793,235390,0.62,-0.86,9.96,-0.03,-0.01,-0.01,31.63
43572193,2197,1,203769,235328,0.62,-0.88,9.92,-0.04,-0.01,-0.01,31.63
43612193,2111,1,203758,235372,0.61,-0.86,9.96,-0.03,-0.01,-0.01,31.63
43652193,2224,1,203720,235481,0.61,-0.87,9.96,-0.03,-0.01,-0.00,31.63
43692193,2256,1,203684,235602,0.61,-0.85,9.96,-0.03,-0.01,-0.01,31.63
43732193,2337,1,203696,235795,0.61,-0.86,9.96,-0.03,-0.01,-0.01,31.63
43772193,2281,1,203678,235856,0.59,-0.87,9.95,-0.03,-0.01,-0.00,31.63
43812193,2304,1,203646,236001,0.60,-0.85,9.96,-0.03,-0.01,-0.00,31.63
43852190,2352,1,203481,236075,0.61,-0.87,9.96,-0.04,-0.00,-0.01,31.63
43892193,2324,1,203399,236251,0.61,-0.83,9.96,-0.03,-0.01,-0.00,31.63
43932193,2289,1,203450,236470,0.60,-0.85,9.93,-0.04,-0.01,-0.00,31.63
43972193,2252,1,203464,236305,0.63,-0.85,9.95,-0.03,-0.01,-0.00,31.63
44012879,2137,1,203135,235437,0.61,-0.87,9.94,-0.03,-0.01,-0.01,31.71
44051193,2285,1,202817,235034,0.62,-0.85,9.96,-0.03,-0.01,-0.01,31.71
44091211,2255,1,202567,234851,0.61,-0.85,9.94,-0.04,-0.01,-0.01,31.71
44131193,2205,1,202417,234649,0.61,-0.87,9.95,-0.03,-0.01,-0.01,31.71
44171193,2250,1,202214,234513,0.60,-0.86,9.96,-0.04,-0.01,-0.01,31.71
44211193,2128,1,202241,234636,0.63,-0.87,9.96,-0.03,-0.01,-0.00,31.71
44251193,2133,1,202112,234760,0.63,-0.87,9.92,-0.03,-0.01,-0.01,31.71
44291203,2107,1,201982,234705,0.62,-0.86,9.95,-0.03,-0.00,-0.01,31.71
44331193,2007,1,201781,234718,0.61,-0.86,9.97,-0.03,-0.01,-0.01,31.71
44371193,1993,1,201683,234746,0.60,-0.86,9.96,-0.03,-0.01,-0.01,31.71
44411193,1998,1,201686,234896,0.62,-0.85,9.94,-0.03,-0.01,-0.00,31.71
44451193,1949,1,201614,235038,0.60,-0.86,9.95,-0.03,-0.01,-0.00,31.71
44491190,1983,1,201569,235131,0.59,-0.85,9.95,-0.03,-0.02,-0.00,31.71
44531193,1967,1,201593,235284,0.61,-0.86,9.95,-0.03,-0.01,-0.00,31.71
44571193,1888,1,201691,235414,0.61,-0.87,9.96,-0.03,-0.01,-0.01,31.71
44611193,1955,1,201665,235555,0.60,-0.85,9.96,-0.03,-0.01,-0.00,31.71
44651190,1936,1,201710,235740,0.61,-0.86,9.96,-0.03,-0.01,-0.01,31.71
44691193,1951,1,201697,235808,0.62,-0.86,9.96,-0.03,-0.01,-0.00,31.71
44732193,2007,1,201641,235215,0.60,-0.87,9.94,-0.03,-0.01,-0.00,31.71
44772193,2019,1,201448,234970,0.62,-0.87,9.95,-0.03,-0.01,-0.00,31.71
44812193,2067,1,201366,234947,0.61,-0.88,9.94,-0.03,-0.01,-0.00,31.71
44852193,2042,1,201372,234982,0.60,-0.88,9.95,-0.03,-0.01,-0.00,31.71
44892190,1978,1,201303,235058,0.61,-0.88,9.96,-0.03,-0.01,-0.00,31.71
44932193,2038,1,201271,235086,0.62,-0.88,9.96,-0.03,-0.01,-0.01,31.71
44972193,2062,1,201327,235252,0.62,-0.85,9.96,-0.03,-0.01,-0.00,31.71
45012880,1950,1,201296,235293,0.62,-0.86,9.98,-0.03,-0.01,-0.00,31.75
45051190,2002,1,201400,235328,0.62,-0.85,9.96,-0.03,-0.01,-0.00,31.75
45091193,2053,1,201401,235434,0.64,-0.86,9.94,-0.03,-0.01,-0.00,31.75
45131190,2033,1,201424,235572,0.60,-0.86,9.95,-0.03,-0.01,-0.00,31.75
45171193,2019,1,201460,235805,0.62,-0.85,9.95,-0.03,-0.01,-0.00,31.75
45211190,2003,1,201559,236057,0.62,-0.85,9.96,-0.03,-0.01,-0.00,31.75
45251193,2032,1,201594,236258,0.63,-0.88,9.93,-0.03,-0.01,-0.00,31.75
45291190,2027,1,201674,236405,0.61,-0.85,9.96,-0.03,-0.01,-0.00,31.75
45331193,2015,1,201734,236578,0.60,-0.85,9.96,-0.03,-0.01,-0.00,31.75
45371190,2054,1,201758,236726,0.60,-0.85,9.96,-0.03,-0.01,-0.00,31.75
45411193,2032,1,201801,236936,0.59,-0.84,9.96,-0.03,-0.01,-0.00,31.75
45451190,2029,1,201846,237028,0.62,-0.87,9.97,-0.03,-0.01,-0.00,31.75
45491193,2077,1,201797,236710,0.61,-0.86,9.96,-0.03,-0.01,-0.00,31.75
45531190,2086,1,201622,236317,0.61,-0.87,9.93,-0.03,-0.01,-0.00,31.75
45571193,2087,1,201612,236272,0.63,-0.86,9.96,-0.03,-0.01,-0.00,31.75
45611190,2047,1,201606,236396,0.62,-0.86,9.95,-0.03,-0.01,-0.00,31.75
45651193,2039,1,201679,236441,0.62,-0.88,9.97,-0.03,-0.01,-0.00,31.75
45691190,2226,1,201700,236624,0.62,-0.87,9.96,-0.03,-0.01,-0.00,31.75
45732193,2395,1,201726,236873,0.62,-0.86,9.95,-0.03,-0.01,-0.00,31.75
45772193,2821,1,201630,237021,0.62,-0.85,9.96,-0.03,-0.01,-0.00,31.75
45812193,2352,1,201856,237104,0.60,-0.85,9.95,-0.03,-0.01,-0.00,31.75
45852190,2103,1,201909,237257,0.62,-0.86,9.95,-0.03,-0.01,-0.00,31.75
45892193,2015,1,202009,237441,0.62,-0.86,9.94,-0.03,-0.01,-0.00,31.75
45932206,1978,1,202010,237636,0.61,-0.86,9.94,-0.03,-0.01,-0.01,31.75
45972193,1983,1,202114,237737,0.63,-0.86,9.96,-0.03,-0.01,-0.00,31.75
46012876,1949,1,202283,237873,0.61,-0.86,9.96,-0.03,-0.01,-0.01,31.71
46051193,1981,1,202323,237961,0.62,-0.87,9.97,-0.03,-0.01,-0.00,31.71
46091193,1987,1,202347,238016,0.62,-0.86,9.94,-0.03,-0.01,-0.00,31.71
46131193,1969,1,202415,238093,0.62,-0.86,9.95,-0.03,-0.01,-0.00,31.71
46171193,1987,1,202457,238196,0.61,-0.87,9.96,-0.03,-0.01,-0.00,31.71
46211193,1999,1,202515,238278,0.61,-0.85,9.95,-0.03,-0.01,-0.00,31.71
46251193,1994,1,202462,238211,0.62,-0.85,9.95,-0.03,-0.01,-0.00,31.71
46291193,1995,1,202417,237787,0.60,-0.85,9.95,-0.03,-0.01,-0.00,31.71
46331190,2019,1,202298,237560,0.62,-0.86,9.96,-0.03,-0.01,-0.00,31.71
46371193,2032,1,202206,237502,0.63,-0.85,9.94,-0.03,-0.01,-0.00,31.71
46411193,2113,1,202154,237497,0.60,-0.85,9.95,-0.03,-0.01,-0.00,31.71
46451193,2043,1,202079,237498,0.62,-0.84,9.95,-0.03,-0.00,-0.00,31.71
46491190,2007,1,202127,237819,0.59,-0.85,9.98,-0.04,-0.02,-0.00,31.71
46531193,2000,1,202425,238127,0.61,-0.87,9.94,-0.03,-0.03,0.00,31.71
46571170,2124,1,202673,238233,0.64,-0.84,9.93,-0.03,-0.01,-0.00,31.71
46611193,2205,1,202592,238295,0.61,-0.85,9.94,-0.04,-0.00,-0.01,31.71
46651193,2102,1,202679,238570,0.58,-0.87,9.97,-0.03,-0.02,-0.00,31.71
46691193,2081,1,202962,238889,0.62,-0.85,9.97,-0.03,-0.02,-0.00,31.71
46731190,2066,1,203147,239218,0.62,-0.85,9.97,-0.03,-0.01,-0.00,31.71
46771193,2044,1,203333,239580,0.62,-0.84,9.96,-0.03,-0.01,-0.00,31.71
46811193,2083,1,203618,239968,0.62,-0.86,9.97,-0.03,-0.02,-0.00,31.71
46851193,2071,1,203856,240329,0.62,-0.85,9.95,-0.04,-0.02,-0.00,31.71
46891193,2096,1,204145,240688,0.66,-0.85,9.96,-0.04,-0.02,-0.00,31.71
46931193,2096,1,204406,241062,0.61,-0.85,9.97,-0.03,-0.01,-0.00,31.71
46971193,2093,1,204664,241405,0.64,-0.86,9.93,-0.03,-0.02,-0.00,31.71
47011193,2096,1,204801,241639,0.67,-0.88,9.96,-0.04,-0.01,-0.00,31.71
47051880,2042,1,205001,241742,0.62,-0.87,9.95,-0.03,-0.01,-0.00,31.67
47090193,2133,1,204997,241402,0.65,-0.86,9.97,-0.03,-0.01,-0.00,31.67
47130193,2125,1,205008,241296,0.66,-0.85,9.95,-0.03,-0.01,-0.00,31.67
47170193,2131,1,205122,241422,0.63,-0.87,9.96,-0.03,-0.01,-0.00,31.67
47210193,2103,1,205318,241638,0.65,-0.85,9.96,-0.03,-0.02,-0.00,31.67
47250193,2123,1,205516,241883,0.66,-0.85,9.96,-0.03,-0.01,-0.00,31.67
47290193,2107,1,205641,242177,0.66,-0.85,9.95,-0.03,-0.01,-0.00,31.67
47330193,2192,1,205838,242447,0.64,-0.87,9.96,-0.03,-0.01,-0.00,31.67
47370229,2155,1,205935,242585,0.64,-0.86,9.95,-0.03,-0.01,-0.00,31.67
47410193,2204,1,205851,242699,0.66,-0.83,9.98,-0.04,-0.01,-0.01,31.67
47450193,2288,1,205731,242715,0.62,-0.87,9.94,-0.04,-0.01,-0.01,31.67
47490193,2262,1,205786,242857,0.64,-0.87,9.97,-0.04,-0.01,-0.01,31.67
47530193,2273,1,205846,242919,0.67,-0.87,9.95,-0.03,-0.01,-0.00,31.67
47570227,2245,1,205959,243049,0.65,-0.87,9.95,-0.03,-0.01,-0.00,31.67
47610193,2233,1,206004,243108,0.64,-0.88,9.96,-0.03,-0.01,-0.00,31.67
47650193,2181,1,206076,243231,0.66,-0.87,9.94,-0.03,-0.01,-0.00,31.67
47690193,2189,1,206047,243365,0.64,-0.87,9.96,-0.03,-0.01,-0.00,31.67
47730193,2118,1,206132,243512,0.63,-0.87,9.95,-0.03,-0.01,-0.00,31.67
47770193,2096,1,206185,243650,0.64,-0.84,9.93,-0.03,-0.01,-0.00,31.67
47810193,2091,1,206341,243682,0.65,-0.85,9.94,-0.03,-0.01,-0.00,31.67
47850193,2080,1,206332,243336,0.63,-0.88,9.96,-0.03,-0.01,-0.00,31.67
47890193,2032,1,206158,243097,0.61,-0.87,9.96,-0.04,-0.01,-0.00,31.67
47930193,2022,1,206090,243047,0.66,-0.86,9.97,-0.03,-0.01,-0.00,31.67
47970193,2000,1,206163,243105,0.65,-0.85,9.93,-0.03,-0.01,-0.00,31.67
48010190,2003,1,206218,243198,0.65,-0.86,9.95,-0.03,-0.01,-0.00,31.67
48050193,1983,1,206291,243315,0.68,-0.85,9.94,-0.03,-0.01,-0.00,31.67
48090879,1943,1,206308,243362,0.64,-0.85,9.94,-0.03,-0.01,-0.00,31.53
48131193,1973,1,206335,243387,0.62,-0.85,9.95,-0.03,-0.01,-0.00,31.53
48171193,1931,1,206477,243474,0.68,-0.86,9.94,-0.03,-0.01,-0.00,31.53
48211193,1951,1,206515,243555,0.65,-0.84,9.96,-0.03,-0.01,-0.00,31.53
48251193,1948,1,206491,243624,0.63,-0.87,9.94,-0.03,-0.01,-0.00,31.53
48291193,1949,1,206572,243606,0.64,-0.85,9.95,-0.03,-0.01,-0.00,31.53
48331193,1968,1,206621,243694,0.66,-0.84,9.96,-0.03,-0.01,-0.00,31.53
48371193,1943,1,206665,243790,0.64,-0.87,9.97,-0.03,-0.01,-0.00,31.53
48411193,1968,1,206755,243888,0.63,-0.85,9.95,-0.03,-0.01,-0.00,31.53
48451193,1931,1,206852,243992,0.66,-0.85,9.93,-0.03,-0.01,-0.00,31.53
48491193,1920,1,206911,244105,0.67,-0.86,9.97,-0.03,-0.01,-0.00,31.53
48531193,1964,1,206929,244190,0.67,-0.86,9.95,-0.03,-0.01,-0.00,31.53
48571193,1987,1,206951,244275,0.68,-0.85,9.97,-0.03,-0.01,-0.01,31.53
48611193,1973,1,206924,243899,0.66,-0.85,9.94,-0.03,-0.01,-0.01,31.53
48651193,2017,1,206792,243604,0.64,-0.86,9.96,-0.03,-0.01,-0.00,31.53
48691193,2006,1,206681,243576,0.65,-0.87,9.94,-0.03,-0.01,-0.00,31.53
48731193,2000,1,206711,243628,0.64,-0.86,9.96,-0.03,-0.01,-0.00,31.53
48771193,1990,1,206731,243701,0.64,-0.85,9.97,-0.03,-0.01,-0.00,31.53
48810190,2032,1,206769,243804,0.64,-0.85,9.96,-0.03,-0.01,-0.00,31.53
48850193,2064,1,206825,243901,0.65,-0.86,9.93,-0.03,-0.01,-0.00,31.53
48890190,2064,1,206878,243925,0.65,-0.85,9.93,-0.03,-0.01,-0.00,31.53
48930193,2047,1,206913,243927,0.62,-0.85,9.95,-0.03,-0.01,-0.00,31.53
48970190,2053,1,206868,243981,0.64,-0.85,9.96,-0.03,-0.01,-0.01,31.53
49010193,2019,1,206897,244106,0.65,-0.86,9.92,-0.03,-0.01,-0.00,31.53
49050190,1972,1,206874,244194,0.64,-0.85,9.97,-0.03,-0.01,-0.00,31.53
49090193,2057,1,206918,244270,0.64,-0.86,9.97,-0.03,-0.01,-0.00,31.53
49130877,1991,1,206943,244357,0.65,-0.86,9.95,-0.03,-0.01,-0.00,31.53
49171193,2000,1,206905,244444,0.64,-0.86,9.95,-0.04,-0.01,-0.00,31.53
49211205,2000,1,207016,244542,0.64,-0.86,9.93,-0.03,-0.01,-0.00,31.53
49251193,1997,1,207052,244623,0.66,-0.86,9.94,-0.03,-0.01,-0.00,31.53
49291193,2029,1,207095,244687,0.66,-0.85,9.92,-0.03,-0.01,-0.00,31.53
49331193,2000,1,207156,244653,0.65,-0.87,9.99,-0.03,-0.01,-0.00,31.53
49371193,2000,1,207065,244270,0.63,-0.87,9.95,-0.03,-0.01,-0.00,31.53
49411198,1986,1,206960,243982,0.65,-0.86,9.93,-0.03,-0.01,-0.00,31.53
49451193,1969,1,206976,243975,0.65,-0.85,9.94,-0.03,-0.01,-0.00,31.53
49489193,2102,1,207002,243979,0.64,-0.85,9.96,-0.03,-0.01,-0.00,31.53
49529193,2098,1,206958,243957,0.65,-0.86,9.96,-0.03,-0.01,-0.00,31.53
49569193,2084,1,206959,244017,0.66,-0.86,9.94,-0.03,-0.01,-0.00,31.53
49609193,2082,1,206987,244097,0.64,-0.86,9.96,-0.03,-0.01,-0.00,31.53
49649193,2061,1,207039,244040,0.66,-0.87,9.97,-0.03,-0.01,-0.00,31.53
49689193,2086,1,207059,244091,0.65,-0.87,9.96,-0.03,-0.01,-0.00,31.53
49729193,2081,1,207087,244049,0.64,-0.85,9.97,-0.03,-0.01,-0.00,31.53
49769193,2074,1,207089,244076,0.65,-0.85,9.97,-0.04,-0.01,-0.00,31.53
49809193,2066,1,207053,244192,0.64,-0.85,9.95,-0.03,-0.01,-0.00,31.53
49850193,1999,1,207086,244251,0.64,-0.85,9.91,-0.03,-0.01,-0.00,31.53
49890193,2030,1,207086,244342,0.65,-0.88,9.94,-0.03,-0.01,-0.00,31.53
49930193,2007,1,207080,244353,0.64,-0.84,9.96,-0.03,-0.01,-0.00,31.53
49970193,2000,1,207049,244457,0.65,-0.85,9.96,-0.03,-0.01,-0.00,31.53
50010190,1999,1,207123,244545,0.63,-0.85,9.95,-0.03,-0.01,-0.00,31.53
50050193,1985,1,207142,244610,0.64,-0.88,9.97,-0.03,-0.01,-0.00,31.53
50090193,2032,1,207201,244495,0.66,-0.86,9.95,-0.03,-0.01,-0.00,31.53
50130879,1983,1,207073,244002,0.64,-0.86,9.96,-0.03,-0.01,-0.00,31.57
50169193,2047,1,206914,243681,0.65,-0.87,9.96,-0.03,-0.01,-0.00,31.57
50209193,2064,1,206847,243646,0.64,-0.86,9.96,-0.03,-0.01,-0.00,31.57
50249193,2047,1,206702,243571,0.64,-0.86,9.93,-0.03,-0.01,-0.00,31.57
50289193,2037,1,206731,243528,0.66,-0.86,9.94,-0.03,-0.01,-0.00,31.57
50329193,2032,1,206672,243630,0.64,-0.85,9.95,-0.03,-0.01,-0.00,31.57
50369193,2053,1,206663,243632,0.65,-0.86,9.96,-0.03,-0.01,-0.00,31.57
50409193,2025,1,206635,243598,0.66,-0.86,9.95,-0.03,-0.01,-0.00,31.57
50449193,2069,1,206643,243601,0.67,-0.86,9.98,-0.03,-0.01,-0.00,31.57
50489190,2038,1,206685,243616,0.65,-0.86,9.96,-0.03,-0.01,-0.00,31.57
50529193,2027,1,206638,243699,0.65,-0.87,9.95,-0.03,-0.01,-0.00,31.57
50569193,2039,1,206649,243749,0.65,-0.86,9.95,-0.03,-0.01,-0.00,31.57
50609193,2023,1,206681,243883,0.65,-0.86,9.95,-0.03,-0.01,-0.00,31.57
50649197,2021,1,206739,243949,0.63,-0.84,9.93,-0.03,-0.01,-0.00,31.57
50689193,2042,1,206773,243995,0.66,-0.87,9.95,-0.03,-0.01,-0.00,31.57
50729193,2015,1,206765,244052,0.65,-0.86,9.94,-0.03,-0.01,-0.00,31.57
50769193,2040,1,206791,244172,0.65,-0.87,9.96,-0.03,-0.01,-0.00,31.57
50809193,2043,1,206798,244224,0.64,-0.85,9.94,-0.03,-0.01,-0.00,31.57
50849226,1995,1,206864,244260,0.65,-0.85,9.90,-0.03,-0.01,-0.00,31.57
50889190,2054,1,206857,243822,0.65,-0.86,9.96,-0.03,-0.01,-0.00,31.57
50929193,2016,1,206646,243336,0.65,-0.87,9.95,-0.03,-0.01,-0.00,31.57
50969193,2033,1,206531,243107,0.65,-0.88,9.94,-0.03,-0.01,-0.00,31.57
51009193,1998,1,206473,243037,0.64,-0.86,9.97,-0.03,-0.01,-0.00,31.57
51049213,2035,1,206458,242946,0.67,-0.88,9.98,-0.03,-0.01,-0.00,31.57
51089193,2016,1,206453,242863,0.66,-0.86,9.95,-0.03,-0.01,-0.00,31.57
51129190,2001,1,206476,242877,0.64,-0.85,9.97,-0.03,-0.01,-0.00,31.57
51169880,1987,1,206522,242811,0.64,-0.85,9.95,-0.03,-0.01,-0.00,31.43
51210193,1975,1,206527,242834,0.65,-0.88,9.95,-0.03,-0.01,-0.00,31.43
51250193,1993,1,206500,242880,0.63,-0.86,9.94,-0.03,-0.01,-0.01,31.43
51290193,1974,1,206442,242954,0.63,-0.87,9.96,-0.03,-0.01,-0.00,31.43
51330193,2001,1,206440,243068,0.64,-0.86,9.94,-0.03,-0.01,-0.00,31.43
51370193,1975,1,206494,243166,0.66,-0.84,9.93,-0.03,-0.01,-0.00,31.43
51410193,2039,1,206507,243304,0.66,-0.86,9.93,-0.03,-0.01,-0.00,31.43
51450193,1975,1,206564,243314,0.64,-0.85,9.96,-0.03,-0.01,-0.01,31.43
51490193,2005,1,206634,243423,0.65,-0.85,9.96,-0.03,-0.01,-0.00,31.43
51530193,1979,1,206610,243518,0.65,-0.86,9.96,-0.03,-0.01,-0.00,31.43
51570193,1986,1,206549,243651,0.65,-0.84,9.93,-0.03,-0.01,-0.01,31.43
51610193,1977,1,206617,243739,0.64,-0.83,9.94,-0.03,-0.01,-0.00,31.43
51650193,1975,1,206579,243431,0.63,-0.87,9.96,-0.03,-0.01,-0.00,31.43
51690193,1984,1,206371,242871,0.65,-0.85,9.96,-0.03,-0.01,-0.00,31.43
51730193,1985,1,206248,242619,0.66,-0.86,9.96,-0.03,-0.01,-0.00,31.43
51770193,1983,1,206193,242482,0.64,-0.86,9.92,-0.03,-0.01,-0.00,31.43
51810193,1979,1,206129,242388,0.64,-0.85,9.95,-0.03,-0.01,-0.00,31.43
51850193,2002,1,206107,242405,0.66,-0.84,9.96,-0.03,-0.01,-0.00,31.43
51890193,1997,1,206094,242455,0.65,-0.86,9.96,-0.03,-0.01,-0.00,31.43
51930193,1978,1,206074,242499,0.63,-0.86,9.95,-0.03,-0.01,-0.00,31.43
51970193,1957,1,206114,242563,0.65,-0.83,9.94,-0.03,-0.01,-0.00,31.43
52010190,1994,1,206154,242575,0.63,-0.84,9.98,-0.03,-0.01,-0.01,31.43
52050193,1989,1,206170,242629,0.65,-0.87,9.96,-0.03,-0.01,-0.00,31.43
52090193,1971,1,206201,242738,0.65,-0.85,9.96,-0.03,-0.01,-0.00,31.43
52128193,2064,1,206220,242836,0.67,-0.88,9.94,-0.03,-0.01,-0.00,31.43
52168193,2074,1,206265,242915,0.66,-0.86,9.96,-0.03,-0.01,-0.00,31.43
52208879,1963,1,206348,242989,0.64,-0.85,9.96,-0.03,-0.01,-0.00,31.55
52249193,1994,1,206353,243116,0.64,-0.87,9.94,-0.03,-0.01,-0.00,31.55
52289193,2016,1,206400,243181,0.63,-0.86,9.98,-0.03,-0.01,-0.01,31.55
52329193,1991,1,206471,243314,0.65,-0.85,9.94,-0.03,-0.01,-0.00,31.55
52369193,2034,1,206518,243310,0.64,-0.85,9.96,-0.03,-0.01,-0.00,31.55
52409193,1979,1,206498,242873,0.66,-0.87,9.96,-0.03,-0.01,-0.00,31.55
52449193,1991,1,206240,242406,0.65,-0.87,9.96,-0.03,-0.01,-0.00,31.55
52489190,1982,1,206154,242117,0.64,-0.86,9.96,-0.03,-0.01,-0.01,31.55
52529193,1968,1,206128,241953,0.65,-0.85,9.97,-0.03,-0.01,-0.00,31.55
52569193,2010,1,206044,241847,0.63,-0.86,10.01,-0.03,-0.01,-0.00,31.55
52609193,1999,1,206016,241852,0.65,-0.86,9.95,-0.03,-0.01,-0.00,31.55
52649193,2000,1,206018,242009,0.64,-0.84,9.94,-0.03,-0.01,-0.00,31.55
52689215,1994,1,206020,242041,0.65,-0.85,9.96,-0.03,-0.01,-0.00,31.55
52729193,1997,1,206042,242097,0.66,-0.85,9.96,-0.03,-0.01,-0.00,31.55
52769193,2047,1,206115,242171,0.64,-0.87,9.97,-0.03,-0.01,-0.00,31.55
52809193,1997,1,206076,242284,0.63,-0.83,9.96,-0.03,-0.01,-0.00,31.55
52849193,1991,1,206103,242399,0.64,-0.85,9.95,-0.03,-0.01,-0.00,31.55
52889193,1997,1,206117,242525,0.64,-0.86,9.96,-0.03,-0.01,-0.00,31.55
52929193,1985,1,206154,242697,0.65,-0.85,9.95,-0.03,-0.01,-0.00,31.55
52969193,1987,1,206216,242815,0.64,-0.85,9.94,-0.03,-0.01,-0.00,31.55
53009193,2000,1,206259,242887,0.65,-0.86,9.94,-0.03,-0.01,-0.01,31.55
53049193,2000,1,206315,243020,0.63,-0.87,9.97,-0.03,-0.01,-0.00,31.55
53089193,1998,1,206351,243150,0.65,-0.84,9.95,-0.03,-0.01,-0.00,31.55
53129193,2047,1,206417,243173,0.65,-0.87,9.95,-0.03,-0.01,-0.00,31.55
53169193,2001,1,206299,242716,0.65,-0.85,9.96,-0.03,-0.01,-0.00,31.55
53209879,1979,1,206047,242197,0.64,-0.85,9.96,-0.03,-0.01,-0.00,31.57
53248193,2038,1,205951,241901,0.62,-0.86,9.97,-0.04,-0.01,-0.00,31.57
53288193,2035,1,205903,241673,0.65,-0.85,9.93,-0.03,-0.01,-0.00,31.57
53328193,2078,1,205816,241637,0.65,-0.87,9.92,-0.03,-0.01,-0.01,31.57
53368193,2043,1,205845,241665,0.64,-0.87,9.96,-0.03,-0.01,-0.00,31.57
53408193,2052,1,205898,241881,0.66,-0.84,9.92,-0.03,-0.01,-0.00,31.57
53448193,2017,1,205927,241963,0.66,-0.85,9.96,-0.03,-0.01,-0.00,31.57
53488193,2006,1,205994,242050,0.62,-0.85,9.96,-0.03,-0.01,-0.00,31.57
53528193,2063,1,206027,242081,0.65,-0.86,9.97,-0.03,-0.01,-0.00,31.57
53568193,2022,1,206058,242236,0.64,-0.85,9.94,-0.03,-0.01,-0.00,31.57
53608192,2027,1,206078,242402,0.65,-0.87,9.96,-0.03,-0.01,-0.00,31.57
53648193,2023,1,206152,242525,0.65,-0.85,9.96,-0.03,-0.01,-0.00,31.57
53688193,1984,1,206204,242660,0.63,-0.86,9.94,-0.03,-0.01,-0.00,31.57
53728193,2039,1,206270,242735,0.65,-0.85,9.95,-0.03,-0.01,-0.00,31.57
53768193,2025,1,206337,242842,0.64,-0.87,9.98,-0.03,-0.01,-0.00,31.57
53808193,2020,1,206354,242974,0.63,-0.85,9.95,-0.03,-0.01,-0.00,31.57
53848193,2019,1,206385,243104,0.64,-0.85,9.95,-0.03,-0.01,-0.01,31.57
53888193,2011,1,206466,243124,0.63,-0.88,9.96,-0.03,-0.01,-0.00,31.57
53928193,2032,1,206422,242595,0.65,-0.85,9.96,-0.03,-0.01,-0.00,31.57
53968193,2015,1,206184,242112,0.65,-0.85,9.94,-0.03,-0.01,-0.01,31.57
54008193,2032,1,206076,241850,0.64,-0.86,9.96,-0.03,-0.01,-0.00,31.57
54048193,2045,1,206024,241676,0.65,-0.85,9.96,-0.03,-0.01,-0.01,31.57
54088194,2025,1,205955,241612,0.65,-0.87,9.96,-0.03,-0.01,-0.00,31.57
54128224,2019,1,205950,241738,0.65,-0.85,9.94,-0.03,-0.01,-0.00,31.57
54168191,2015,1,206019,241849,0.65,-0.85,9.94,-0.03,-0.01,-0.00,31.57
54208194,2027,1,206030,241828,0.66,-0.86,9.93,-0.03,-0.01,-0.00,31.57
54248876,1966,1,206031,241869,0.65,-0.86,9.95,-0.03,-0.01,-0.00,31.61
54289193,2015,1,206032,241961,0.65,-0.86,9.97,-0.03,-0.01,-0.00,31.61
54329198,2032,1,206035,242047,0.65,-0.85,9.98,-0.03,-0.01,-0.00,31.61
54369194,2010,1,206093,242163,0.67,-0.84,9.96,-0.03,-0.01,-0.00,31.61
54409193,1999,1,206020,242262,0.66,-0.87,9.98,-0.03,-0.01,-0.00,31.61
54449193,1987,1,206080,242348,0.64,-0.85,9.96,-0.03,-0.01,-0.00,31.61
54489190,1979,1,206131,242442,0.65,-0.85,9.94,-0.03,-0.01,-0.00,31.61
54529193,2000,1,206149,242580,0.66,-0.85,9.92,-0.03,-0.01,-0.00,31.61
54569193,1994,1,206181,242654,0.63,-0.86,9.95,-0.03,-0.01,-0.00,31.61
54609193,1983,1,206186,242638,0.64,-0.84,9.96,-0.03,-0.01,-0.00,31.61
54649193,1984,1,206086,242034,0.64,-0.86,9.96,-0.03,-0.01,-0.00,31.61
54689194,1993,1,205901,241440,0.65,-0.84,9.94,-0.03,-0.01,-0.00,31.61
54729194,2007,1,205754,241068,0.63,-0.85,9.98,-0.03,-0.01,-0.00,31.61
54769193,2022,1,205682,240804,0.65,-0.85,9.93,-0.03,-0.01,-0.00,31.61
54809193,2000,1,205621,240763,0.65,-0.85,9.94,-0.03,-0.01,-0.00,31.61
54849193,1966,1,205628,240890,0.64,-0.85,9.96,-0.03,-0.01,-0.00,31.61
54889193,2000,1,205727,241053,0.64,-0.85,9.95,-0.03,-0.01,-0.00,31.61
54927193,2096,1,205784,241121,0.64,-0.85,9.97,-0.03,-0.01,-0.00,31.61
54967193,2081,1,205793,241223,0.65,-0.85,9.95,-0.03,-0.01,-0.00,31.61
55007193,2083,1,205822,241293,0.64,-0.86,9.95,-0.03,-0.01,-0.00,31.61
55047193,2070,1,205874,241438,0.65,-0.86,9.94,-0.03,-0.01,-0.00,31.61
55087193,2074,1,205976,241599,0.63,-0.85,9.97,-0.03,-0.01,-0.01,31.61
55127192,2096,1,206076,241728,0.62,-0.86,9.95,-0.03,-0.01,-0.00,31.61
55167193,2103,1,206189,241843,0.63,-0.85,9.96,-0.03,-0.01,-0.00,31.61
55207193,2094,1,206223,242054,0.64,-0.84,9.98,-0.03,-0.01,-0.00,31.61
55247193,2078,1,206307,242247,0.64,-0.86,9.97,-0.03,-0.01,-0.00,31.61
55287880,2033,1,206355,242405,0.66,-0.84,9.92,-0.03,-0.01,-0.00,31.75
55328193,2021,1,206377,242467,0.65,-0.86,9.96,-0.03,-0.01,-0.00,31.75
55368193,2038,1,206353,241895,0.65,-0.86,9.94,-0.03,-0.01,-0.01,31.75
55408193,2021,1,206121,241116,0.65,-0.86,9.94,-0.03,-0.01,-0.00,31.75
55448193,2020,1,205915,240553,0.62,-0.88,9.96,-0.03,-0.01,-0.00,31.75
55488193,1999,1,205813,240327,0.64,-0.85,9.97,-0.03,-0.01,-0.01,31.75
55528193,1991,1,205775,240307,0.64,-0.87,9.96,-0.03,-0.01,-0.00,31.75
55568193,2000,1,205772,240399,0.64,-0.87,9.96,-0.03,-0.01,-0.00,31.75
55608193,2047,1,205832,240535,0.65,-0.85,9.94,-0.03,-0.01,-0.00,31.75
55648193,2055,1,205881,240666,0.65,-0.85,9.95,-0.03,-0.01,-0.00,31.75
55688193,1994,1,205862,240788,0.66,-0.84,9.95,-0.03,-0.01,-0.00,31.75
55728193,2027,1,205936,241006,0.63,-0.86,9.97,-0.03,-0.01,-0.00,31.75
55768208,2011,1,205970,241166,0.63,-0.86,9.97,-0.03,-0.01,-0.01,31.75
55808193,2033,1,206051,241414,0.64,-0.85,9.96,-0.03,-0.01,-0.00,31.75
55848193,2017,1,206110,241550,0.64,-0.85,9.96,-0.03,-0.01,-0.00,31.75
55888193,2011,1,206160,241721,0.62,-0.85,9.93,-0.03,-0.01,-0.00,31.75
55928193,1974,1,206241,241835,0.65,-0.84,9.96,-0.03,-0.01,-0.00,31.75
55968221,1993,1,206254,241957,0.64,-0.83,9.94,-0.03,-0.01,-0.01,31.75
56008193,1994,1,206285,242068,0.64,-0.87,9.97,-0.03,-0.01,-0.00,31.75
56048193,1955,1,206391,242198,0.64,-0.87,9.97,-0.03,-0.01,-0.01,31.75
56088193,1973,1,206399,242319,0.65,-0.86,9.96,-0.03,-0.01,-0.00,31.75
56128193,1969,1,206374,241766,0.64,-0.85,9.95,-0.03,-0.01,-0.00,31.75
56168215,1968,1,206134,240873,0.65,-0.86,9.96,-0.03,-0.01,-0.00,31.75
56208193,1983,1,205946,240159,0.64,-0.85,9.96,-0.03,-0.01,-0.01,31.75
56248193,2002,1,205716,239848,0.63,-0.86,9.96,-0.03,-0.01,-0.00,31.75
56288880,1977,1,205683,239658,0.63,-0.85,9.93,-0.03,-0.01,-0.00,31.49
56327190,2032,1,205711,239699,0.64,-0.84,9.93,-0.03,-0.01,-0.00,31.49
56367193,2029,1,205740,239907,0.64,-0.85,9.95,-0.03,-0.01,-0.00,31.49
56407193,2030,1,205821,240079,0.63,-0.84,9.97,-0.03,-0.01,-0.00,31.49
56447193,2037,1,205839,240165,0.66,-0.85,9.94,-0.03,-0.01,-0.00,31.49
56487190,2032,1,205903,240345,0.63,-0.87,9.95,-0.03,-0.01,-0.00,31.49
56527193,2045,1,205995,240544,0.65,-0.86,9.97,-0.03,-0.01,-0.00,31.49
56567190,2046,1,206028,240737,0.63,-0.84,9.94,-0.03,-0.01,-0.00,31.49
56607193,2035,1,206066,240936,0.65,-0.85,9.98,-0.03,-0.01,-0.00,31.49
56647193,2029,1,206143,241106,0.64,-0.86,9.93,-0.03,-0.01,-0.00,31.49
56687193,2023,1,206218,241276,0.64,-0.86,9.96,-0.03,-0.01,-0.00,31.49
56727190,2020,1,206261,241426,0.64,-0.84,9.95,-0.03,-0.01,-0.00,31.49
56767193,2036,1,206305,241552,0.64,-0.86,9.95,-0.03,-0.01,-0.00,31.49
56807190,2021,1,206380,241741,0.64,-0.87,9.96,-0.03,-0.01,-0.00,31.49
56847193,2035,1,206436,241933,0.65,-0.85,9.92,-0.03,-0.01,-0.00,31.49
56887190,1991,1,206493,241896,0.63,-0.85,9.95,-0.03,-0.01,-0.00,31.49
56927193,2041,1,206353,241095,0.64,-0.85,9.94,-0.03,-0.01,-0.00,31.49
56967190,2031,1,206058,240248,0.64,-0.86,9.99,-0.03,-0.01,-0.00,31.49
57007193,2017,1,205902,239796,0.64,-0.85,9.97,-0.03,-0.01,-0.00,31.49
57047190,2016,1,205831,239788,0.62,-0.85,9.94,-0.03,-0.01,-0.00,31.49
57087193,2011,1,205889,239871,0.65,-0.87,9.94,-0.03,-0.01,-0.00,31.49
57127190,1999,1,205898,240157,0.65,-0.85,9.96,-0.03,-0.01,-0.00,31.49
57167193,2009,1,206000,240453,0.64,-0.87,9.99,-0.03,-0.01,-0.00,31.49
57207190,2013,1,206094,240644,0.63,-0.86,9.93,-0.03,-0.01,-0.00,31.49
57247193,2018,1,206142,240833,0.64,-0.88,9.94,-0.03,-0.01,-0.00,31.49
57287193,2013,1,206234,241000,0.63,-0.86,9.95,-0.03,-0.01,-0.00,31.49
57327879,1975,1,206258,241173,0.63,-0.87,9.97,-0.03,-0.01,-0.00,31.47
57368193,1998,1,206316,241425,0.67,-0.85,9.95,-0.03,-0.01,-0.00,31.47
57408193,2000,1,206435,241666,0.64,-0.87,9.95,-0.03,-0.01,-0.00,31.47
57448193,2001,1,206527,241892,0.65,-0.85,9.94,-0.03,-0.01,-0.00,31.47
57486193,2074,1,206619,242040,0.63,-0.85,9.96,-0.03,-0.01,-0.00,31.47
57526193,2113,1,206729,242230,0.62,-0.85,9.96,-0.03,-0.01,-0.00,31.47
57566193,2125,1,206771,242433,0.64,-0.87,9.97,-0.03,-0.01,-0.00,31.47
57606207,2087,1,206910,242560,0.68,-0.85,9.98,-0.03,-0.01,-0.00,31.47
57646193,2065,1,207042,242594,0.65,-0.86,9.95,-0.03,-0.01,-0.00,31.47
57686193,2089,1,206874,241739,0.67,-0.85,9.96,-0.03,-0.01,-0.00,31.47
57726193,2078,1,206626,240916,0.65,-0.85,9.95,-0.03,-0.01,-0.01,31.47
57766193,2065,1,206537,240622,0.64,-0.83,9.96,-0.03,-0.01,-0.00,31.47
57806193,1982,1,206462,240587,0.63,-0.87,9.96,-0.03,-0.01,-0.00,31.47
57847193,2015,1,206465,240601,0.67,-0.84,9.97,-0.03,-0.01,-0.00,31.47
57887193,2026,1,206459,240757,0.65,-0.84,9.94,-0.03,-0.01,-0.00,31.47
57927190,2002,1,206547,240903,0.63,-0.83,9.97,-0.03,-0.01,-0.00,31.47
57967193,1993,1,206562,240981,0.65,-0.85,9.94,-0.03,-0.01,-0.00,31.47
58007190,2007,1,206568,241095,0.66,-0.86,9.96,-0.04,-0.01,-0.00,31.47
58047193,2021,1,206605,241149,0.65,-0.87,9.95,-0.03,-0.01,-0.00,31.47
58087193,2021,1,206611,241169,0.64,-0.86,9.95,-0.03,-0.01,-0.00,31.47
58127193,2011,1,206661,241369,0.65,-0.85,9.94,-0.03,-0.01,-0.00,31.47
58167193,2000,1,206675,241455,0.64,-0.86,9.95,-0.03,-0.01,-0.00,31.47
58207192,2010,1,206702,241525,0.62,-0.87,9.96,-0.03,-0.01,-0.00,31.47
58247193,2000,1,206688,241715,0.65,-0.83,9.93,-0.03,-0.01,-0.00,31.47
58287193,1975,1,206700,241861,0.66,-0.83,9.93,-0.03,-0.01,-0.00,31.47
58327879,1948,1,206729,242022,0.63,-0.87,9.97,-0.03,-0.01,-0.01,31.63
58366193,2057,1,206745,241918,0.64,-0.84,9.95,-0.03,-0.01,-0.01,31.63
58406193,2073,1,206567,240979,0.64,-0.85,9.96,-0.03,-0.01,-0.00,31.63
58446193,2059,1,206317,240193,0.66,-0.85,9.93,-0.03,-0.01,-0.00,31.63
58486193,2058,1,206098,239851,0.66,-0.86,9.95,-0.03,-0.01,-0.00,31.63
58526193,2064,1,206066,239792,0.65,-0.85,9.95,-0.03,-0.01,-0.00,31.63
58566193,2017,1,206001,239787,0.64,-0.84,9.92,-0.03,-0.01,-0.00,31.63
58606193,2066,1,206008,239973,0.64,-0.85,9.97,-0.03,-0.01,-0.00,31.63
58646193,2077,1,206064,240228,0.63,-0.85,9.96,-0.03,-0.01,-0.00,31.63
58686193,2041,1,206107,240377,0.65,-0.85,9.94,-0.03,-0.01,-0.00,31.63
58726193,2047,1,206015,240464,0.64,-0.87,9.95,-0.03,-0.01,-0.00,31.63
58766193,1924,1,206014,240545,0.63,-0.86,9.96,-0.03,-0.01,-0.00,31.63
58806193,1930,1,206075,240658,0.66,-0.85,9.98,-0.03,-0.01,-0.00,31.63
58847193,1872,1,206137,240800,0.62,-0.88,9.96,-0.03,-0.01,-0.00,31.63
58887193,1783,1,206149,240948,0.64,-0.86,9.99,-0.03,-0.01,-0.00,31.63
58927193,1867,1,206179,241079,0.64,-0.86,9.94,-0.03,-0.01,-0.00,31.63
58967193,1872,1,206199,241197,0.64,-0.84,9.96,-0.03,-0.01,-0.00,31.63
59007193,1933,1,206300,241274,0.62,-0.85,9.96,-0.03,-0.01,-0.00,31.63
59047193,1952,1,206334,241422,0.64,-0.85,9.93,-0.03,-0.01,-0.00,31.63
59087193,1991,1,206356,241472,0.64,-0.85,9.96,-0.03,-0.01,-0.00,31.63
59127193,2037,1,206336,240916,0.62,-0.85,9.94,-0.03,-0.01,-0.00,31.63
59167193,2029,1,206055,239725,0.62,-0.85,9.96,-0.03,-0.01,-0.00,31.63
59207193,2071,1,205804,238992,0.64,-0.84,9.97,-0.03,-0.01,-0.00,31.63
59247193,2068,1,205675,238777,0.62,-0.84,9.94,-0.03,-0.01,-0.00,31.63
59287193,2084,1,205580,238813,0.63,-0.87,9.98,-0.03,-0.01,-0.00,31.63
59327880,2021,1,205580,238846,0.64,-0.82,9.94,-0.03,-0.01,-0.00,31.41
59366190,2122,1,205648,239087,0.64,-0.85,9.92,-0.03,-0.01,-0.00,31.41
59406193,2106,1,205698,239307,0.62,-0.86,9.95,-0.03,-0.01,-0.00,31.41
59446193,2142,1,205750,239341,0.65,-0.86,9.98,-0.03,-0.01,-0.00,31.41
59486193,2130,1,205787,239398,0.64,-0.84,9.94,-0.03,-0.01,-0.00,31.41
59526190,2121,1,205820,239560,0.62,-0.83,9.95,-0.03,-0.01,-0.00,31.41
59566193,2111,1,205889,239864,0.62,-0.84,9.98,-0.03,-0.01,-0.00,31.41
59606190,2099,1,205996,240120,0.65,-0.87,9.97,-0.03,-0.01,-0.00,31.41
59646193,2105,1,206022,240319,0.66,-0.85,9.95,-0.03,-0.01,-0.00,31.41
59686190,2107,1,206129,240553,0.63,-0.85,9.96,-0.03,-0.01,-0.00,31.41
59726193,2112,1,206138,240746,0.63,-0.86,9.93,-0.03,-0.01,-0.01,31.41
59766193,2101,1,206198,240955,0.65,-0.85,9.95,-0.03,-0.01,-0.00,31.41
59806193,2098,1,206267,241114,0.64,-0.85,9.96,-0.03,-0.01,-0.00,31.41
59846190,2058,1,206307,241274,0.63,-0.84,9.95,-0.03,-0.01,-0.01,31.41
59887193,2023,1,206184,240566,0.62,-0.86,9.96,-0.03,-0.01,-0.00,31.41
59927193,2001,1,205906,239514,0.64,-0.86,9.96,-0.03,-0.01,-0.00,31.41
59967193,2044,1,205694,238907,0.64,-0.84,9.94,-0.03,-0.01,-0.01,31.41
60007193,1986,1,205570,238846,0.64,-0.84,9.97,-0.03,-0.01,-0.00,31.41
60047193,1978,1,205556,238963,0.64,-0.86,9.95,-0.03,-0.01,-0.00,31.41
60087193,2021,1,205613,239140,0.63,-0.87,9.93,-0.03,-0.01,-0.00,31.41
60127193,2004,1,205739,239504,0.62,-0.85,9.94,-0.03,-0.01,-0.00,31.41
60167193,2000,1,205798,239756,0.66,-0.86,9.95,-0.03,-0.01,-0.00,31.41
60207193,2010,1,205858,239891,0.67,-0.86,9.96,-0.03,-0.01,-0.01,31.41
60247193,1995,1,205924,240089,0.65,-0.85,9.96,-0.03,-0.01,-0.00,31.41
60287200,2023,1,206026,240371,0.62,-0.85,9.96,-0.03,-0.01,-0.00,31.41
60327880,1994,1,206188,240603,0.66,-0.86,9.94,-0.03,-0.01,-0.00,31.21
60366193,2034,1,206292,240973,0.63,-0.88,9.94,-0.03,-0.01,-0.00,31.21
60406193,2031,1,206351,241195,0.63,-0.85,9.94,-0.03,-0.01,-0.01,31.21
60446193,2053,1,206455,241403,0.64,-0.85,9.96,-0.03,-0.01,-0.00,31.21
60486190,2037,1,206560,241610,0.64,-0.86,9.94,-0.03,-0.01,-0.00,31.21
60526198,2032,1,206608,241774,0.64,-0.84,9.92,-0.03,-0.01,-0.01,31.21
60566193,2018,1,206693,241952,0.65,-0.86,9.94,-0.03,-0.01,-0.00,31.21
60606193,2033,1,206692,241618,0.63,-0.85,9.96,-0.03,-0.01,-0.00,31.21
60646190,2002,1,206471,240516,0.65,-0.83,9.94,-0.03,-0.01,-0.00,31.21
60686193,2000,1,206227,239771,0.66,-0.84,9.96,-0.03,-0.01,-0.00,31.21
60726193,1982,1,206076,239512,0.64,-0.87,9.95,-0.03,-0.01,-0.00,31.21
60766193,2015,1,206065,239476,0.63,-0.85,9.94,-0.03,-0.01,-0.00,31.21
60806190,2019,1,206026,239538,0.63,-0.86,9.98,-0.03,-0.01,-0.00,31.21
60846193,1998,1,206099,239779,0.64,-0.85,9.96,-0.03,-0.01,-0.00,31.21
60885193,2083,1,206134,239842,0.65,-0.86,9.97,-0.03,-0.01,-0.00,31.21
60925193,2075,1,206177,239878,0.64,-0.85,9.95,-0.03,-0.01,-0.01,31.21
60965193,2064,1,206104,239940,0.62,-0.84,9.96,-0.03,-0.01,-0.00,31.21
61005193,2096,1,206150,240105,0.64,-0.84,9.96,-0.03,-0.01,-0.00,31.21
61045193,2085,1,206245,240252,0.66,-0.86,9.94,-0.03,-0.01,-0.00,31.21
61085193,2098,1,206353,240467,0.65,-0.85,9.95,-0.03,-0.01,-0.01,31.21
61125193,2090,1,206316,240685,0.62,-0.85,9.96,-0.03,-0.01,-0.00,31.21
61165193,2067,1,206325,240936,0.64,-0.87,9.95,-0.03,-0.01,-0.00,31.21
61205193,2080,1,206376,241124,0.63,-0.85,9.94,-0.03,-0.01,-0.00,31.21
61245193,2084,1,206458,241232,0.63,-0.87,9.95,-0.03,-0.01,-0.00,31.21
61285193,2094,1,206486,241232,0.65,-0.85,9.93,-0.03,-0.01,-0.00,31.21
61325193,2086,1,206275,240397,0.65,-0.87,9.93,-0.03,-0.01,-0.00,31.21
61365880,2016,1,205987,239191,0.62,-0.85,9.96,-0.04,-0.01,-0.01,31.41
61406193,2067,1,205732,238682,0.63,-0.86,9.96,-0.03,-0.01,-0.00,31.41
61446193,2035,1,205636,238529,0.64,-0.86,9.96,-0.03,-0.01,-0.00,31.41
61486193,2032,1,205663,238455,0.63,-0.84,9.97,-0.03,-0.01,-0.00,31.41
61526193,2016,1,205582,238544,0.64,-0.86,9.97,-0.03,-0.01,-0.00,31.41
61566193,2021,1,205664,238871,0.65,-0.86,9.97,-0.03,-0.01,-0.00,31.41
61606193,2029,1,205769,239074,0.64,-0.87,9.95,-0.03,-0.01,-0.00,31.41
61646193,2009,1,205819,239205,0.64,-0.85,9.95,-0.03,-0.01,-0.00,31.41
61686194,1989,1,205833,239328,0.63,-0.86,9.94,-0.03,-0.01,-0.00,31.41
